pos,corr_resp,trials.thisRepN,trials.thisTrialN,trials.thisN,trials.thisIndex,trials_2.thisRepN,trials_2.thisTrialN,trials_2.thisN,trials_2.thisIndex,fixation.started,line1.started,line2.started,line3.started,line4.started,fixation.stopped,probe.started,key_resp.started,key_resp.keys,key_resp.corr,key_resp.rt,participant,session,date,expName,psychopyVersion,frameRate,
-50,x,0,0,0,0,,,,,21.512859000009485,22.47969569999259,22.47969569999259,22.47969569999259,22.47969569999259,22.513030199916102,23.47959139989689,23.47959139989689,x,1,1.1908308001002297,975758,001,2022-11-05_17h01.20.972,untitled,2022.2.4,60.080628173475596,
150,v,0,1,1,1,,,,,24.71283219999168,25.696207799948752,25.696207799948752,25.696207799948752,25.696207799948752,25.712708299979568,26.696096999919973,26.696096999919973,v,1,0.45620190002955496,975758,001,2022-11-05_17h01.20.972,untitled,2022.2.4,60.080628173475596,
50,c,0,2,2,2,,,,,27.179302799981087,28.179401599918492,28.179401599918492,28.179401599918492,28.179401599918492,28.179401599918492,29.17920549993869,29.17920549993869,c,1,0.75720029999502,975758,001,2022-11-05_17h01.20.972,untitled,2022.2.4,60.080628173475596,
-150,z,0,3,3,3,,,,,29.962471499922685,30.96243939991109,30.96243939991109,30.96243939991109,30.96243939991109,30.96243939991109,31.962411199929193,31.962411199929193,z,1,0.32581199996639043,975758,001,2022-11-05_17h01.20.972,untitled,2022.2.4,60.080628173475596,
-50,x,1,0,4,0,,,,,32.312330799992196,33.312303399899974,33.312303399899974,33.312303399899974,33.312303399899974,33.312303399899974,34.3121405999409,34.3121405999409,x,1,0.46233799995388836,975758,001,2022-11-05_17h01.20.972,untitled,2022.2.4,60.080628173475596,
150,v,1,1,5,1,,,,,34.795631899964064,35.79541329992935,35.79541329992935,35.79541329992935,35.79541329992935,35.79541329992935,36.79534650000278,36.79534650000278,v,1,0.35446070006582886,975758,001,2022-11-05_17h01.20.972,untitled,2022.2.4,60.080628173475596,
50,c,1,2,6,2,,,,,37.17862599994987,38.17863089998718,38.17863089998718,38.17863089998718,38.17863089998718,38.17863089998718,39.178543699905276,39.178543699905276,c,1,0.4379797000437975,975758,001,2022-11-05_17h01.20.972,untitled,2022.2.4,60.080628173475596,
-150,z,1,3,7,3,,,,,39.64508639997803,40.64503229991533,40.64503229991533,40.64503229991533,40.64503229991533,40.64503229991533,41.64503639994655,41.64503639994655,z,1,0.3498556000413373,975758,001,2022-11-05_17h01.20.972,untitled,2022.2.4,60.080628173475596,
-50,x,2,0,8,0,,,,,42.011558199999854,43.01153639995027,43.01153639995027,43.01153639995027,43.01153639995027,43.01153639995027,44.01153639995027,44.01153639995027,x,1,0.4976592999882996,975758,001,2022-11-05_17h01.20.972,untitled,2022.2.4,60.080628173475596,
150,v,2,1,9,1,,,,,44.52816280000843,45.52802359999623,45.52802359999623,45.52802359999623,45.52802359999623,45.52802359999623,46.52807020000182,46.52807020000182,v,1,0.2930276000406593,975758,001,2022-11-05_17h01.20.972,untitled,2022.2.4,60.080628173475596,
50,c,2,2,10,2,,,,,46.84456409991253,47.8446280999342,47.8446280999342,47.8446280999342,47.8446280999342,47.8446280999342,48.844533899915405,48.844533899915405,c,1,0.7426434999797493,975758,001,2022-11-05_17h01.20.972,untitled,2022.2.4,60.080628173475596,
-150,z,2,3,11,3,,,,,49.61115129990503,50.61112989997491,50.61112989997491,50.61112989997491,50.61112989997491,50.61112989997491,51.61092919996008,51.61092919996008,z,1,0.3429323999444023,975758,001,2022-11-05_17h01.20.972,untitled,2022.2.4,60.080628173475596,
-50,x,3,0,12,0,,,,,51.97765369992703,52.977659999975,52.977659999975,52.977659999975,52.977659999975,52.977659999975,53.97749819990713,53.97749819990713,x,1,0.29016089998185635,975758,001,2022-11-05_17h01.20.972,untitled,2022.2.4,60.080628173475596,
150,v,3,1,13,1,,,,,54.294165099970996,55.29419229994528,55.29419229994528,55.29419229994528,55.29419229994528,55.29419229994528,56.29395029996522,56.29395029996522,v,1,0.33863269991707057,975758,001,2022-11-05_17h01.20.972,untitled,2022.2.4,60.080628173475596,
50,c,3,2,14,2,,,,,56.6606635999633,57.660527399973944,57.660527399973944,57.660527399973944,57.660527399973944,57.660527399973944,58.6604715998983,58.6604715998983,c,1,0.7131337999599054,975758,001,2022-11-05_17h01.20.972,untitled,2022.2.4,60.080628173475596,
-150,z,3,3,15,3,,,,,59.39386789989658,60.393774199998006,60.393774199998006,60.393774199998006,60.393774199998006,60.393774199998006,61.393724699970335,61.393724699970335,z,1,0.17020870000123978,975758,001,2022-11-05_17h01.20.972,untitled,2022.2.4,60.080628173475596,
-50,x,4,0,16,0,,,,,61.59357879997697,62.59362860000692,62.59362860000692,62.59362860000692,62.59362860000692,62.59362860000692,63.593428099993616,63.593428099993616,x,1,0.3139877999201417,975758,001,2022-11-05_17h01.20.972,untitled,2022.2.4,60.080628173475596,
150,v,4,1,17,1,,,,,63.926676200004295,64.92684739991091,64.92684739991091,64.92684739991091,64.92684739991091,64.92684739991091,65.92686519993003,65.92686519993003,v,1,0.3048617000458762,975758,001,2022-11-05_17h01.20.972,untitled,2022.2.4,60.080628173475596,
50,c,4,2,18,2,,,,,66.25994509994052,67.25989379989915,67.25989379989915,67.25989379989915,67.25989379989915,67.25989379989915,68.2599096999038,68.2599096999038,c,1,0.31287659995723516,975758,001,2022-11-05_17h01.20.972,untitled,2022.2.4,60.080628173475596,
-150,z,4,3,19,3,,,,,68.59312999993563,69.59310559998266,69.59310559998266,69.59310559998266,69.59310559998266,69.59310559998266,70.5929683999857,70.5929683999857,z,1,0.30461830005515367,975758,001,2022-11-05_17h01.20.972,untitled,2022.2.4,60.080628173475596,
-50,x,5,0,20,0,,,,,70.92636139993556,71.92651909997221,71.92651909997221,71.92651909997221,71.92651909997221,71.92651909997221,72.91399489995092,72.91399489995092,x,1,0.2994564000982791,975758,001,2022-11-05_17h01.20.972,untitled,2022.2.4,60.080628173475596,
150,v,5,1,21,1,,,,,73.23065489996225,74.23111980000976,74.23111980000976,74.23111980000976,74.23111980000976,74.23111980000976,75.23043009999674,75.23043009999674,v,1,0.26526289992034435,975758,001,2022-11-05_17h01.20.972,untitled,2022.2.4,60.080628173475596,
50,c,5,2,22,2,,,,,75.5138399999123,76.51377179997507,76.51377179997507,76.51377179997507,76.51377179997507,76.51377179997507,77.51362669991795,77.51362669991795,c,1,0.2631405000574887,975758,001,2022-11-05_17h01.20.972,untitled,2022.2.4,60.080628173475596,
-150,z,5,3,23,3,,,,,77.79690029995982,78.79682749998756,78.79682749998756,78.79682749998756,78.79682749998756,78.79682749998756,79.79674229992088,79.79674229992088,z,1,0.22816609998699278,975758,001,2022-11-05_17h01.20.972,untitled,2022.2.4,60.080628173475596,
-50,x,6,0,24,0,,,,,80.04673509998247,81.04705079994164,81.04705079994164,81.04705079994164,81.04705079994164,81.04705079994164,82.04667539999355,82.04667539999355,x,1,0.2874380999710411,975758,001,2022-11-05_17h01.20.972,untitled,2022.2.4,60.080628173475596,
150,v,6,1,25,1,,,,,82.3632185999304,83.36362389998976,83.36362389998976,83.36362389998976,83.36362389998976,83.36362389998976,84.36310939991381,84.36310939991381,v,1,0.33139559999108315,975758,001,2022-11-05_17h01.20.972,untitled,2022.2.4,60.080628173475596,
50,c,6,2,26,2,,,,,84.7131553000072,85.713161499938,85.713161499938,85.713161499938,85.713161499938,85.713161499938,86.71310980000999,86.71310980000999,c,1,0.11350259999744594,975758,001,2022-11-05_17h01.20.972,untitled,2022.2.4,60.080628173475596,
-150,z,6,3,27,3,,,,,86.84626469993964,87.84625099995174,87.84625099995174,87.84625099995174,87.84625099995174,87.84625099995174,88.84628379996866,88.84628379996866,z,1,0.8372911000624299,975758,001,2022-11-05_17h01.20.972,untitled,2022.2.4,60.080628173475596,
-50,x,7,0,28,0,,,,,89.713055399945,90.71275849989615,90.71275849989615,90.71275849989615,90.71275849989615,90.71275849989615,91.71265479992144,91.71265479992144,x,1,0.2325820999685675,975758,001,2022-11-05_17h01.20.972,untitled,2022.2.4,60.080628173475596,
150,v,7,1,29,1,,,,,91.96297459991183,92.9625764999073,92.9625764999073,92.9625764999073,92.9625764999073,92.9625764999073,93.96322809997946,93.96322809997946,v,1,0.2370814000023529,975758,001,2022-11-05_17h01.20.972,untitled,2022.2.4,60.080628173475596,
50,c,7,2,30,2,,,,,94.2292120999191,95.22902410000097,95.22902410000097,95.22902410000097,95.22902410000097,95.22902410000097,96.22909479995724,96.22909479995724,c,1,0.2437021000077948,975758,001,2022-11-05_17h01.20.972,untitled,2022.2.4,60.080628173475596,
-150,z,7,3,31,3,,,,,96.4956670999527,97.49560439994093,97.49560439994093,97.49560439994093,97.49560439994093,97.49560439994093,98.49558019998949,98.49558019998949,z,1,0.22071490006055683,975758,001,2022-11-05_17h01.20.972,untitled,2022.2.4,60.080628173475596,
-50,x,8,0,32,0,,,,,98.745505400002,99.74549759994261,99.74549759994261,99.74549759994261,99.74549759994261,99.74549759994261,100.74535719992127,100.74535719992127,x,1,0.2555416999384761,975758,001,2022-11-05_17h01.20.972,untitled,2022.2.4,60.080628173475596,
150,v,8,1,33,1,,,,,101.02867389994208,102.02866569999605,102.02866569999605,102.02866569999605,102.02866569999605,102.02866569999605,103.02881169994362,103.02881169994362,v,1,0.05065360001754016,975758,001,2022-11-05_17h01.20.972,untitled,2022.2.4,60.080628173475596,
50,c,8,2,34,2,,,,,103.11185019998811,104.11183979990892,104.11183979990892,104.11183979990892,104.11183979990892,104.11183979990892,105.11169869999867,105.11169869999867,c,1,0.0009769999887794256,975758,001,2022-11-05_17h01.20.972,untitled,2022.2.4,60.080628173475596,
-150,z,8,3,35,3,,,,,105.12832179991528,106.12841549993027,106.12841549993027,106.12841549993027,106.12841549993027,106.12841549993027,107.12820969999302,107.12820969999302,z,1,0.21096489997580647,975758,001,2022-11-05_17h01.20.972,untitled,2022.2.4,60.080628173475596,
-50,x,9,0,36,0,,,,,107.36154549999628,108.36141859996133,108.36141859996133,108.36141859996133,108.36141859996133,108.36141859996133,109.36145789991133,109.36145789991133,x,1,0.10878979996778071,975758,001,2022-11-05_17h01.20.972,untitled,2022.2.4,60.080628173475596,
150,v,9,1,37,1,,,,,109.494782499969,110.49472029996105,110.49472029996105,110.49472029996105,110.49472029996105,110.49472029996105,111.49468169989996,111.49468169989996,v,1,0.2623403000179678,975758,001,2022-11-05_17h01.20.972,untitled,2022.2.4,60.080628173475596,
50,c,9,2,38,2,,,,,111.7779489000095,112.77788869990036,112.77788869990036,112.77788869990036,112.77788869990036,112.77788869990036,113.77778469992336,113.77778469992336,c,1,0.2732578000286594,975758,001,2022-11-05_17h01.20.972,untitled,2022.2.4,60.080628173475596,
-150,z,9,3,39,3,,,,,114.07771189999767,115.07770649995655,115.07770649995655,115.07770649995655,115.07770649995655,115.07770649995655,116.07772939989809,116.07772939989809,z,1,0.32093749998603016,975758,001,2022-11-05_17h01.20.972,untitled,2022.2.4,60.080628173475596,
-50,x,10,0,40,0,,,,,116.42773959995247,117.42753300000913,117.42753300000913,117.42753300000913,117.42753300000913,117.42753300000913,118.427777600009,118.427777600009,x,1,0.28205589996650815,975758,001,2022-11-05_17h01.20.972,untitled,2022.2.4,60.080628173475596,
150,v,10,1,41,1,,,,,118.72740450000856,119.72747069993056,119.72747069993056,119.72747069993056,119.72747069993056,119.72747069993056,120.7273881000001,120.7273881000001,v,1,0.34332340001128614,975758,001,2022-11-05_17h01.20.972,untitled,2022.2.4,60.080628173475596,
50,c,10,2,42,2,,,,,121.09400979999918,122.09395829995628,122.09395829995628,122.09395829995628,122.09395829995628,122.09395829995628,123.09387589991093,123.09387589991093,c,1,0.25684030004777014,975758,001,2022-11-05_17h01.20.972,untitled,2022.2.4,60.080628173475596,
-150,z,10,3,43,3,,,,,123.37711839994881,124.37704119994305,124.37704119994305,124.37704119994305,124.37704119994305,124.37704119994305,125.37718539999332,125.37718539999332,z,1,0.3326594000682235,975758,001,2022-11-05_17h01.20.972,untitled,2022.2.4,60.080628173475596,
-50,x,11,0,44,0,,,,,125.72704979998525,126.72694600000978,126.72694600000978,126.72694600000978,126.72694600000978,126.72694600000978,127.72690439992584,127.72690439992584,x,1,0.012984799919649959,975758,001,2022-11-05_17h01.20.972,untitled,2022.2.4,60.080628173475596,
150,v,11,1,45,1,,,,,127.76017429993954,128.76010179996956,128.76010179996956,128.76010179996956,128.76010179996956,128.76010179996956,129.76002749998588,129.76002749998588,v,1,0.23758310009725392,975758,001,2022-11-05_17h01.20.972,untitled,2022.2.4,60.080628173475596,
50,c,11,2,46,2,,,,,130.02658869989682,131.0266596999718,131.0266596999718,131.0266596999718,131.0266596999718,131.0266596999718,132.02654200000688,132.02654200000688,c,1,0.24664329993538558,975758,001,2022-11-05_17h01.20.972,untitled,2022.2.4,60.080628173475596,
-150,z,11,3,47,3,,,,,132.29327329993248,133.2931905000005,133.2931905000005,133.2931905000005,133.2931905000005,133.2931905000005,134.29301599995233,134.29301599995233,z,1,0.38776640000287443,975758,001,2022-11-05_17h01.20.972,untitled,2022.2.4,60.080628173475596,
-50,x,12,0,48,0,,,,,134.70995489996858,135.70964519993868,135.70964519993868,135.70964519993868,135.70964519993868,135.70964519993868,136.7095175998984,136.7095175998984,x,1,0.5709026000695303,975758,001,2022-11-05_17h01.20.972,untitled,2022.2.4,60.080628173475596,
150,v,12,1,49,1,,,,,137.33845119993202,138.33836870000232,138.33836870000232,138.33836870000232,138.33836870000232,138.33836870000232,139.33822389994748,139.33822389994748,v,1,0.34185929992236197,975758,001,2022-11-05_17h01.20.972,untitled,2022.2.4,60.080628173475596,
50,c,12,2,50,2,,,,,139.70500199997332,140.70494389999658,140.70494389999658,140.70494389999658,140.70494389999658,140.70494389999658,141.7052030999912,141.7052030999912,c,1,0.2540309999603778,975758,001,2022-11-05_17h01.20.972,untitled,2022.2.4,60.080628173475596,
-150,z,12,3,51,3,,,,,141.98832000000402,142.98801579989959,142.98801579989959,142.98801579989959,142.98801579989959,142.98801579989959,143.98790810001083,143.98790810001083,z,1,0.282540800049901,975758,001,2022-11-05_17h01.20.972,untitled,2022.2.4,60.080628173475596,
-50,x,13,0,52,0,,,,,144.28852529998403,145.28798499994446,145.28798499994446,145.28798499994446,145.28798499994446,145.28798499994446,146.2879090999486,146.2879090999486,x,1,0.04114889993797988,975758,001,2022-11-05_17h01.20.972,untitled,2022.2.4,60.080628173475596,
150,v,13,1,53,1,,,,,146.3544441999402,147.3543685999466,147.3543685999466,147.3543685999466,147.3543685999466,147.3543685999466,148.35444979998283,148.35444979998283,v,1,0.2545695999870077,975758,001,2022-11-05_17h01.20.972,untitled,2022.2.4,60.080628173475596,
50,c,13,2,54,2,,,,,148.63762469997164,149.63741049997043,149.63741049997043,149.63741049997043,149.63741049997043,149.63741049997043,150.63758149999194,150.63758149999194,c,1,0.20457389997318387,975758,001,2022-11-05_17h01.20.972,untitled,2022.2.4,60.080628173475596,
-150,z,13,3,55,3,,,,,150.8708354999544,151.87072010000702,151.87072010000702,151.87072010000702,151.87072010000702,151.87072010000702,152.87064350000583,152.87064350000583,z,1,0.25891540001612157,975758,001,2022-11-05_17h01.20.972,untitled,2022.2.4,60.080628173475596,
-50,x,14,0,56,0,,,,,153.15409689990338,154.15387509996071,154.15387509996071,154.15387509996071,154.15387509996071,154.15387509996071,155.15390909998678,155.15390909998678,x,1,0.12149320007301867,975758,001,2022-11-05_17h01.20.972,untitled,2022.2.4,60.080628173475596,
150,v,14,1,57,1,,,,,155.3038706999505,156.30391579994466,156.30391579994466,156.30391579994466,156.30391579994466,156.30391579994466,157.3037821999751,157.3037821999751,v,1,0.27130949997808784,975758,001,2022-11-05_17h01.20.972,untitled,2022.2.4,60.080628173475596,
50,c,14,2,58,2,,,,,157.60372079990339,158.60367099998984,158.60367099998984,158.60367099998984,158.60367099998984,158.60367099998984,159.60361769993324,159.60361769993324,c,1,0.494527000002563,975758,001,2022-11-05_17h01.20.972,untitled,2022.2.4,60.080628173475596,
-150,z,14,3,59,3,,,,,160.12026749993674,161.12013419996947,161.12013419996947,161.12013419996947,161.12013419996947,161.12013419996947,162.12013709999155,162.12013709999155,z,1,0.47323270002380013,975758,001,2022-11-05_17h01.20.972,untitled,2022.2.4,60.080628173475596,
-50,x,15,0,60,0,,,,,162.6199964999687,163.62006230000407,163.62006230000407,163.62006230000407,163.62006230000407,163.62006230000407,164.62025269994047,164.62025269994047,x,1,0.2567251999862492,975758,001,2022-11-05_17h01.20.972,untitled,2022.2.4,60.080628173475596,
150,v,15,1,61,1,,,,,164.90316599991638,165.90318109991495,165.90318109991495,165.90318109991495,165.90318109991495,165.90318109991495,166.90302309999242,166.90302309999242,v,1,0.43826219998300076,975758,001,2022-11-05_17h01.20.972,untitled,2022.2.4,60.080628173475596,
50,c,15,2,62,2,,,,,167.36966819991358,168.3695400999859,168.3695400999859,168.3695400999859,168.3695400999859,168.3695400999859,169.36950399994384,169.36950399994384,c,1,0.20476539991796017,975758,001,2022-11-05_17h01.20.972,untitled,2022.2.4,60.080628173475596,
-150,z,15,3,63,3,,,,,169.6028498999076,170.6027710000053,170.6027710000053,170.6027710000053,170.6027710000053,170.6027710000053,171.60269059997518,171.60269059997518,z,1,0.29092039994429797,975758,001,2022-11-05_17h01.20.972,untitled,2022.2.4,60.080628173475596,
-50,x,16,0,64,0,,,,,171.91939419996925,172.9194819999393,172.9194819999393,172.9194819999393,172.9194819999393,172.9194819999393,173.9192819999298,173.9192819999298,x,1,0.27899399993475527,975758,001,2022-11-05_17h01.20.972,untitled,2022.2.4,60.080628173475596,
150,v,16,1,65,1,,,,,174.2193002999993,175.21936819993425,175.21936819993425,175.21936819993425,175.21936819993425,175.21936819993425,176.21923229994718,176.21923229994718,v,1,0.5816094999900088,975758,001,2022-11-05_17h01.20.972,untitled,2022.2.4,60.080628173475596,
50,c,16,2,66,2,,,,,176.81908980000298,177.81906499993056,177.81906499993056,177.81906499993056,177.81906499993056,177.81906499993056,178.81906020001043,178.81906020001043,c,1,0.23928740003611892,975758,001,2022-11-05_17h01.20.972,untitled,2022.2.4,60.080628173475596,
-150,z,16,3,67,3,,,,,179.08563019998837,180.085535399965,180.085535399965,180.085535399965,180.085535399965,180.085535399965,181.0854215999134,181.0854215999134,z,1,0.24501459999009967,975758,001,2022-11-05_17h01.20.972,untitled,2022.2.4,60.080628173475596,
-50,x,17,0,68,0,,,,,181.35219080001116,182.35221519996412,182.35221519996412,182.35221519996412,182.35221519996412,182.35221519996412,183.35209119995125,183.35209119995125,x,1,0.29454150004312396,975758,001,2022-11-05_17h01.20.972,untitled,2022.2.4,60.080628173475596,
150,v,17,1,69,1,,,,,183.6686126999557,184.66879889997654,184.66879889997654,184.66879889997654,184.66879889997654,184.66879889997654,185.6684571999358,185.6684571999358,v,1,0.22510129993315786,975758,001,2022-11-05_17h01.20.972,untitled,2022.2.4,60.080628173475596,
50,c,17,2,70,2,,,,,185.9184695999138,186.91840089997277,186.91840089997277,186.91840089997277,186.91840089997277,186.91840089997277,187.91866269998718,187.91866269998718,c,1,0.31733660004101694,975758,001,2022-11-05_17h01.20.972,untitled,2022.2.4,60.080628173475596,
-150,z,17,3,71,3,,,,,188.26833859994076,189.2682569999015,189.2682569999015,189.2682569999015,189.2682569999015,189.2682569999015,190.26818319992162,190.26818319992162,z,1,0.35126139991916716,975758,001,2022-11-05_17h01.20.972,untitled,2022.2.4,60.080628173475596,
-50,x,18,0,72,0,,,,,190.65145299991127,191.65149889991153,191.65149889991153,191.65149889991153,191.65149889991153,191.65149889991153,192.6513636999298,192.6513636999298,x,1,0.27409109997097403,975758,001,2022-11-05_17h01.20.972,untitled,2022.2.4,60.080628173475596,
150,v,18,1,73,1,,,,,192.9513617999619,193.95137739996426,193.95137739996426,193.95137739996426,193.95137739996426,193.95137739996426,194.95123519992922,194.95123519992922,v,1,0.2992876999778673,975758,001,2022-11-05_17h01.20.972,untitled,2022.2.4,60.080628173475596,
50,c,18,2,74,2,,,,,195.26771839999128,196.26782019995153,196.26782019995153,196.26782019995153,196.26782019995153,196.26782019995153,197.2677820000099,197.2677820000099,c,1,0.24445450003258884,975758,001,2022-11-05_17h01.20.972,untitled,2022.2.4,60.080628173475596,
-150,z,18,3,75,3,,,,,197.53428929997608,198.53434259991627,198.53434259991627,198.53434259991627,198.53434259991627,198.53434259991627,199.53428549994715,199.53428549994715,z,1,0.25514319993089885,975758,001,2022-11-05_17h01.20.972,untitled,2022.2.4,60.080628173475596,
-50,x,19,0,76,0,,,,,199.81862729997374,200.81741589994635,200.81741589994635,200.81741589994635,200.81741589994635,200.83463409997057,201.817367099924,201.817367099924,x,1,0.23865630000364035,975758,001,2022-11-05_17h01.20.972,untitled,2022.2.4,60.080628173475596,
150,v,19,1,77,1,,,,,202.08404959994368,203.08387579990085,203.08387579990085,203.08387579990085,203.08387579990085,203.08387579990085,204.08395060000475,204.08395060000475,v,1,0.28004979994148016,975758,001,2022-11-05_17h01.20.972,untitled,2022.2.4,60.080628173475596,
50,c,19,2,78,2,,,,,204.38350789994,205.38386969990097,205.38386969990097,205.38386969990097,205.38386969990097,205.38386969990097,206.38392299995758,206.38392299995758,c,1,0.24894489999860525,975758,001,2022-11-05_17h01.20.972,untitled,2022.2.4,60.080628173475596,
-150,z,19,3,79,3,,,,,206.65049999998882,207.6504580999026,207.6504580999026,207.6504580999026,207.6504580999026,207.6504580999026,208.65056489990093,208.65056489990093,z,1,0.22117239993531257,975758,001,2022-11-05_17h01.20.972,untitled,2022.2.4,60.080628173475596,
-50,x,20,0,80,0,,,,,208.90033460000996,209.90023239993025,209.90023239993025,209.90023239993025,209.90023239993025,209.90023239993025,210.9002138999058,210.9002138999058,x,1,0.13880819990299642,975758,001,2022-11-05_17h01.20.972,untitled,2022.2.4,60.080628173475596,
150,v,20,1,81,1,,,,,211.06717339996248,212.06682519998867,212.06682519998867,212.06682519998867,212.06682519998867,212.06682519998867,213.06651989999227,213.06651989999227,v,1,0.3005881999852136,975758,001,2022-11-05_17h01.20.972,untitled,2022.2.4,60.080628173475596,
50,c,20,2,82,2,,,,,213.38335179991554,214.38340529997367,214.38340529997367,214.38340529997367,214.38340529997367,214.38340529997367,215.38354329997674,215.38354329997674,c,1,0.31438249989878386,975758,001,2022-11-05_17h01.20.972,untitled,2022.2.4,60.080628173475596,
-150,z,20,3,83,3,,,,,215.71650249999948,216.71621039998718,216.71621039998718,216.71621039998718,216.71621039998718,216.71621039998718,217.7162853999762,217.7162853999762,z,1,0.3154047999996692,975758,001,2022-11-05_17h01.20.972,untitled,2022.2.4,60.080628173475596,
-50,x,21,0,84,0,,,,,218.04953179997392,219.04951299994718,219.04951299994718,219.04951299994718,219.04951299994718,219.04951299994718,220.04946629994083,220.04946629994083,x,1,0.24222499993629754,975758,001,2022-11-05_17h01.20.972,untitled,2022.2.4,60.080628173475596,
150,v,21,1,85,1,,,,,220.31604209996294,221.3161526999902,221.3161526999902,221.3161526999902,221.3161526999902,221.3161526999902,222.31604780000634,222.31604780000634,v,1,0.38439370004925877,975758,001,2022-11-05_17h01.20.972,untitled,2022.2.4,60.080628173475596,
50,c,21,2,86,2,,,,,222.73268619994633,223.732595999958,223.732595999958,223.732595999958,223.732595999958,223.732595999958,224.73249209998176,224.73249209998176,c,1,0.28209510003216565,975758,001,2022-11-05_17h01.20.972,untitled,2022.2.4,60.080628173475596,
-150,z,21,3,87,3,,,,,225.03363149997313,226.03256909991615,226.03256909991615,226.03256909991615,226.03256909991615,226.04918919992633,227.0324237999739,227.0324237999739,z,1,0.24839019996579736,975758,001,2022-11-05_17h01.20.972,untitled,2022.2.4,60.080628173475596,
-50,x,22,0,88,0,,,,,227.2990068999352,228.29904229997192,228.29904229997192,228.29904229997192,228.29904229997192,228.29904229997192,229.29872479999904,229.29872479999904,x,1,0.22187910007778555,975758,001,2022-11-05_17h01.20.972,untitled,2022.2.4,60.080628173475596,
150,v,22,1,89,1,,,,,229.54909609991591,230.5492161998991,230.5492161998991,230.5492161998991,230.5492161998991,230.5492161998991,231.54865049989894,231.54865049989894,v,1,0.24647670006379485,975758,001,2022-11-05_17h01.20.972,untitled,2022.2.4,60.080628173475596,
50,c,22,2,90,2,,,,,231.81536059989594,232.81524959998205,232.81524959998205,232.81524959998205,232.81524959998205,232.81524959998205,233.81529349996708,233.81529349996708,c,1,0.27805359999183565,975758,001,2022-11-05_17h01.20.972,untitled,2022.2.4,60.080628173475596,
-150,z,22,3,91,3,,,,,234.1151455999352,235.11510259995703,235.11510259995703,235.11510259995703,235.11510259995703,235.11510259995703,236.11499859998003,236.11499859998003,z,1,0.30546659999527037,975758,001,2022-11-05_17h01.20.972,untitled,2022.2.4,60.080628173475596,
-50,x,23,0,92,0,,,,,236.4484373999294,237.44825069990475,237.44825069990475,237.44825069990475,237.44825069990475,237.44825069990475,238.44817949994467,238.44817949994467,x,1,0.2429888000478968,975758,001,2022-11-05_17h01.20.972,untitled,2022.2.4,60.080628173475596,
150,v,23,1,93,1,,,,,238.71486670000013,239.71485729992855,239.71485729992855,239.71485729992855,239.71485729992855,239.71485729992855,240.71482839994133,240.71482839994133,v,1,0.41759839991573244,975758,001,2022-11-05_17h01.20.972,untitled,2022.2.4,60.080628173475596,
50,c,23,2,94,2,,,,,241.1647778999759,242.1647651999956,242.1647651999956,242.1647651999956,242.1647651999956,242.1647651999956,243.1646417999873,243.1646417999873,c,1,0.27711260004434735,975758,001,2022-11-05_17h01.20.972,untitled,2022.2.4,60.080628173475596,
-150,z,23,3,95,3,,,,,243.46448219998274,244.46447050001007,244.46447050001007,244.46447050001007,244.46447050001007,244.46447050001007,245.46444999997038,245.46444999997038,z,1,0.27730429999064654,975758,001,2022-11-05_17h01.20.972,untitled,2022.2.4,60.080628173475596,
-50,x,24,0,96,0,,,,,245.76440059999004,246.76437579991762,246.76437579991762,246.76437579991762,246.76437579991762,246.76437579991762,247.76433789997827,247.76433789997827,x,1,0.21054300002288073,975758,001,2022-11-05_17h01.20.972,untitled,2022.2.4,60.080628173475596,
150,v,24,1,97,1,,,,,247.99759649997577,248.9975237000035,248.9975237000035,248.9975237000035,248.9975237000035,248.9975237000035,249.99753439996857,249.99753439996857,v,1,0.25493099994491786,975758,001,2022-11-05_17h01.20.972,untitled,2022.2.4,60.080628173475596,
50,c,24,2,98,2,,,,,250.2808023999678,251.28081339993514,251.28081339993514,251.28081339993514,251.28081339993514,251.28081339993514,252.28056679992005,252.28056679992005,c,1,0.25101869995705783,975758,001,2022-11-05_17h01.20.972,untitled,2022.2.4,60.080628173475596,
-150,z,24,3,99,3,,,,,252.54716999991797,253.54730039997958,253.54730039997958,253.54730039997958,253.54730039997958,253.54730039997958,254.5472019999288,254.5472019999288,x,0,0.1789678999921307,975758,001,2022-11-05_17h01.20.972,untitled,2022.2.4,60.080628173475596,
-50,x,25,0,100,0,,,,,254.74763409991283,255.74709019996226,255.74709019996226,255.74709019996226,255.74709019996226,255.74709019996226,256.7471421000082,256.7471421000082,x,1,0.0936556999804452,975758,001,2022-11-05_17h01.20.972,untitled,2022.2.4,60.080628173475596,
150,v,25,1,101,1,,,,,256.8637096999446,257.8636667999672,257.8636667999672,257.8636667999672,257.8636667999672,257.8636667999672,258.8634770999197,258.8634770999197,v,1,0.2560750999255106,975758,001,2022-11-05_17h01.20.972,untitled,2022.2.4,60.080628173475596,
50,c,25,2,102,2,,,,,259.14675919990987,260.146829299978,260.146829299978,260.146829299978,260.146829299978,260.146829299978,261.14664049993735,261.14664049993735,c,1,0.26761170011013746,975758,001,2022-11-05_17h01.20.972,untitled,2022.2.4,60.080628173475596,
-150,z,25,3,103,3,,,,,261.446678499924,262.4465581999393,262.4465581999393,262.4465581999393,262.4465581999393,262.4465581999393,263.44622069993056,263.44622069993056,z,1,0.4065726000117138,975758,001,2022-11-05_17h01.20.972,untitled,2022.2.4,60.080628173475596,
-50,x,26,0,104,0,,,,,263.879743999918,264.87976589996833,264.87976589996833,264.87976589996833,264.87976589996833,264.87976589996833,265.87969829991926,265.87969829991926,x,1,1.7396463999757543,975758,001,2022-11-05_17h01.20.972,untitled,2022.2.4,60.080628173475596,
150,v,26,1,105,1,,,,,267.6466842999216,268.6467031999491,268.6467031999491,268.6467031999491,268.6467031999491,268.6467031999491,269.64613779995125,269.64613779995125,v,1,0.32816009991802275,975758,001,2022-11-05_17h01.20.972,untitled,2022.2.4,60.080628173475596,
50,c,26,2,106,2,,,,,269.9961818999145,270.9959381999215,270.9959381999215,270.9959381999215,270.9959381999215,270.9959381999215,271.9959808998974,271.9959808998974,c,1,0.2443702999735251,975758,001,2022-11-05_17h01.20.972,untitled,2022.2.4,60.080628173475596,
-150,z,26,3,107,3,,,,,272.2625409999164,273.26235330000054,273.26235330000054,273.26235330000054,273.26235330000054,273.26235330000054,274.26248159992974,274.26248159992974,z,1,0.3750597999896854,975758,001,2022-11-05_17h01.20.972,untitled,2022.2.4,60.080628173475596,
-50,x,27,0,108,0,,,,,274.6623589999508,275.6623401999241,275.6623401999241,275.6623401999241,275.6623401999241,275.6623401999241,276.6622430999996,276.6622430999996,x,1,0.2760017999680713,975758,001,2022-11-05_17h01.20.972,untitled,2022.2.4,60.080628173475596,
150,v,27,1,109,1,,,,,276.96217899990734,277.9622512999922,277.9622512999922,277.9622512999922,277.9622512999922,277.9622512999922,278.96217459999025,278.96217459999025,v,1,0.3449938000412658,975758,001,2022-11-05_17h01.20.972,untitled,2022.2.4,60.080628173475596,
50,c,27,2,110,2,,,,,279.3287132999394,280.32869839994237,280.32869839994237,280.32869839994237,280.32869839994237,280.32869839994237,281.3285640999675,281.3285640999675,c,1,0.30124529998283833,975758,001,2022-11-05_17h01.20.972,untitled,2022.2.4,60.080628173475596,
-150,z,27,3,111,3,,,,,281.66187770001125,282.6618888999801,282.6618888999801,282.6618888999801,282.6618888999801,282.6618888999801,283.66174929996487,283.66174929996487,z,1,0.3937457000138238,975758,001,2022-11-05_17h01.20.972,untitled,2022.2.4,60.080628173475596,
-50,x,28,0,112,0,,,,,284.07845239993185,285.0783269999083,285.0783269999083,285.0783269999083,285.0783269999083,285.0783269999083,286.07825389993377,286.07825389993377,x,1,0.32739430002402514,975758,001,2022-11-05_17h01.20.972,untitled,2022.2.4,60.080628173475596,
150,v,28,1,113,1,,,,,286.42828839994036,287.4283361999551,287.4283361999551,287.4283361999551,287.4283361999551,287.4283361999551,288.4282993999077,288.4282993999077,v,1,0.31377480004448444,975758,001,2022-11-05_17h01.20.972,untitled,2022.2.4,60.080628173475596,
50,c,28,2,114,2,,,,,288.7612775999587,289.76127879996784,289.76127879996784,289.76127879996784,289.76127879996784,289.76127879996784,290.76128420000896,290.76128420000896,c,1,0.24326829996425658,975758,001,2022-11-05_17h01.20.972,untitled,2022.2.4,60.080628173475596,
-150,z,28,3,115,3,,,,,291.0279428999638,292.02785979991313,292.02785979991313,292.02785979991313,292.02785979991313,292.02785979991313,293.02788459998555,293.02788459998555,z,1,0.2220892000477761,975758,001,2022-11-05_17h01.20.972,untitled,2022.2.4,60.080628173475596,
-50,x,29,0,116,0,,,,,293.2777349000098,294.27767999994103,294.27767999994103,294.27767999994103,294.27767999994103,294.27767999994103,295.2776908999076,295.2776908999076,x,1,0.28717639995738864,975758,001,2022-11-05_17h01.20.972,untitled,2022.2.4,60.080628173475596,
150,v,29,1,117,1,,,,,295.5943507999182,296.5974122999469,296.5974122999469,296.5974122999469,296.5974122999469,296.5974122999469,297.5941632000031,297.5941632000031,c,0,0.35858030000235885,975758,001,2022-11-05_17h01.20.972,untitled,2022.2.4,60.080628173475596,
50,c,29,2,118,2,,,,,297.9774249999318,298.97735479997937,298.97735479997937,298.97735479997937,298.97735479997937,298.97735479997937,299.9773165999213,299.9773165999213,c,1,0.24168630002532154,975758,001,2022-11-05_17h01.20.972,untitled,2022.2.4,60.080628173475596,
-150,z,29,3,119,3,,,,,300.2438880999107,301.24399300001096,301.24399300001096,301.24399300001096,301.24399300001096,301.24399300001096,302.2438024999574,302.2438024999574,z,1,1.8766504999948665,975758,001,2022-11-05_17h01.20.972,untitled,2022.2.4,60.080628173475596,
-50,x,30,0,120,0,,,,,304.14361419994384,305.14365069998894,305.14365069998894,305.14365069998894,305.14365069998894,305.14365069998894,306.1435107999714,306.1435107999714,x,1,0.7561402000719681,975758,001,2022-11-05_17h01.20.972,untitled,2022.2.4,60.080628173475596,
150,v,30,1,121,1,,,,,306.9267528000055,307.9268535999581,307.9268535999581,307.9268535999581,307.9268535999581,307.9268535999581,308.92674299993087,308.92674299993087,v,1,0.5922086000209674,975758,001,2022-11-05_17h01.20.972,untitled,2022.2.4,60.080628173475596,
50,c,30,2,122,2,,,,,309.543196399929,310.54321489995345,310.54321489995345,310.54321489995345,310.54321489995345,310.54321489995345,311.5432834000094,311.5432834000094,c,1,0.24366799998097122,975758,001,2022-11-05_17h01.20.972,untitled,2022.2.4,60.080628173475596,
-150,z,30,3,123,3,,,,,311.8136494999053,312.8145611999789,312.8145611999789,312.8145611999789,312.8145611999789,312.8145611999789,313.81406719994266,313.81406719994266,z,1,0.280941600096412,975758,001,2022-11-05_17h01.20.972,untitled,2022.2.4,60.080628173475596,
-50,x,31,0,124,0,,,,,314.11394939990714,315.1140452999389,315.1140452999389,315.1140452999389,315.1140452999389,315.1140452999389,316.11418999999296,316.11418999999296,x,1,0.03781899996101856,975758,001,2022-11-05_17h01.20.972,untitled,2022.2.4,60.080628173475596,
150,v,31,1,125,1,,,,,316.1805376999546,317.18047829996794,317.18047829996794,317.18047829996794,317.18047829996794,317.18047829996794,318.18052799999714,318.18052799999714,v,1,0.2938077000435442,975758,001,2022-11-05_17h01.20.972,untitled,2022.2.4,60.080628173475596,
50,c,31,2,126,2,,,,,318.4970338999992,319.4969601999037,319.4969601999037,319.4969601999037,319.4969601999037,319.4969601999037,320.4969844999723,320.4969844999723,c,1,0.26880269998218864,975758,001,2022-11-05_17h01.20.972,untitled,2022.2.4,60.080628173475596,
-150,z,31,3,127,3,,,,,320.79685699997935,321.79696259996854,321.79696259996854,321.79696259996854,321.79696259996854,321.79696259996854,322.79677839996293,322.79677839996293,z,1,0.26208809996023774,975758,001,2022-11-05_17h01.20.972,untitled,2022.2.4,60.080628173475596,
-50,x,32,0,128,0,,,,,323.08005879994016,324.0800523000071,324.0800523000071,324.0800523000071,324.0800523000071,324.0800523000071,325.0799378999509,325.0799378999509,x,1,0.28240310004912317,975758,001,2022-11-05_17h01.20.972,untitled,2022.2.4,60.080628173475596,
150,v,32,1,129,1,,,,,325.37992269999813,326.37994849996176,326.37994849996176,326.37994849996176,326.37994849996176,326.37994849996176,327.379696299904,327.379696299904,v,1,0.2741715000011027,975758,001,2022-11-05_17h01.20.972,untitled,2022.2.4,60.080628173475596,
50,c,32,2,130,2,,,,,327.6800162999425,328.6796894998988,328.6796894998988,328.6796894998988,328.6796894998988,328.6796894998988,329.67950799991377,329.67950799991377,c,1,0.2543365000747144,975758,001,2022-11-05_17h01.20.972,untitled,2022.2.4,60.080628173475596,
-150,z,32,3,131,3,,,,,329.9632328998996,330.96291789994575,330.96291789994575,330.96291789994575,330.96291789994575,330.96291789994575,331.9630577999633,331.9630577999633,z,1,0.2741493999492377,975758,001,2022-11-05_17h01.20.972,untitled,2022.2.4,60.080628173475596,
-50,x,33,0,132,0,,,,,332.262760899961,333.2628231999697,333.2628231999697,333.2628231999697,333.2628231999697,333.2628231999697,334.26261609990615,334.26261609990615,x,1,0.2982065000105649,975758,001,2022-11-05_17h01.20.972,untitled,2022.2.4,60.080628173475596,
150,v,33,1,133,1,,,,,334.579530899995,335.5791683999123,335.5791683999123,335.5791683999123,335.5791683999123,335.5791683999123,336.5790719999932,336.5790719999932,v,1,0.379896100028418,975758,001,2022-11-05_17h01.20.972,untitled,2022.2.4,60.080628173475596,
50,c,33,2,134,2,,,,,336.9790697999997,337.9791461999994,337.9791461999994,337.9791461999994,337.9791461999994,337.9791461999994,338.9790303999325,338.9790303999325,c,1,0.2713731999974698,975758,001,2022-11-05_17h01.20.972,untitled,2022.2.4,60.080628173475596,
-150,z,33,3,135,3,,,,,339.2789527999703,340.2788864999311,340.2788864999311,340.2788864999311,340.2788864999311,340.2788864999311,341.27923749992624,341.27923749992624,z,1,0.6103662999812514,975758,001,2022-11-05_17h01.20.972,untitled,2022.2.4,60.080628173475596,
-50,x,34,0,136,0,,,,,341.9076679999707,342.907665799954,342.907665799954,342.907665799954,342.907665799954,342.907665799954,343.90776929992717,343.90776929992717,x,1,0.2655622001038864,975758,001,2022-11-05_17h01.20.972,untitled,2022.2.4,60.080628173475596,
150,v,34,1,137,1,,,,,344.1908612999832,345.1909585999092,345.1909585999092,345.1909585999092,345.1909585999092,345.1909585999092,346.19090549997054,346.19090549997054,v,1,0.46033329993952066,975758,001,2022-11-05_17h01.20.972,untitled,2022.2.4,60.080628173475596,
50,c,34,2,138,2,,,,,346.6741062999936,347.6739771999419,347.6739771999419,347.6739771999419,347.6739771999419,347.6739771999419,348.6741102999076,348.6741102999076,c,1,0.2328791000181809,975758,001,2022-11-05_17h01.20.972,untitled,2022.2.4,60.080628173475596,
-150,z,34,3,139,3,,,,,348.9238774999976,349.92401059996337,349.92401059996337,349.92401059996337,349.92401059996337,349.92401059996337,350.92390299995895,350.92390299995895,z,1,0.14521930005867034,975758,001,2022-11-05_17h01.20.972,untitled,2022.2.4,60.080628173475596,
-50,x,35,0,140,0,,,,,351.0904286999721,352.09078639990184,352.09078639990184,352.09078639990184,352.09078639990184,352.09078639990184,353.0902810000116,353.0902810000116,x,1,0.2750099999830127,975758,001,2022-11-05_17h01.20.972,untitled,2022.2.4,60.080628173475596,
150,v,35,1,141,1,,,,,353.39028019993566,354.3903547999216,354.3903547999216,354.3903547999216,354.3903547999216,354.3903547999216,355.3902474999195,355.3902474999195,v,1,0.6409719999646768,975758,001,2022-11-05_17h01.20.972,untitled,2022.2.4,60.080628173475596,
50,c,35,2,142,2,,,,,356.0567579999333,357.05683349992614,357.05683349992614,357.05683349992614,357.05683349992614,357.05683349992614,358.0567712999182,358.0567712999182,c,1,0.42433450010139495,975758,001,2022-11-05_17h01.20.972,untitled,2022.2.4,60.080628173475596,
-150,z,35,3,143,3,,,,,358.50661859998945,359.5065713999793,359.5065713999793,359.5065713999793,359.5065713999793,359.5065713999793,360.5064807999879,360.5064807999879,z,1,0.28496419999282807,975758,001,2022-11-05_17h01.20.972,untitled,2022.2.4,60.080628173475596,
-50,x,36,0,144,0,,,,,360.8231120998971,361.8230668999022,361.8230668999022,361.8230668999022,361.8230668999022,361.8230668999022,362.8230254999362,362.8230254999362,x,1,0.27202729997225106,975758,001,2022-11-05_17h01.20.972,untitled,2022.2.4,60.080628173475596,
150,v,36,1,145,1,,,,,363.1228925999021,364.1229909999529,364.1229909999529,364.1229909999529,364.1229909999529,364.1229909999529,365.12291819998063,365.12291819998063,v,1,0.5770867000101134,975758,001,2022-11-05_17h01.20.972,untitled,2022.2.4,60.080628173475596,
50,c,36,2,146,2,,,,,365.7227864000015,366.7228280999698,366.7228280999698,366.7228280999698,366.7228280999698,366.7228280999698,367.7227159999311,367.7227159999311,c,1,0.07505580002907664,975758,001,2022-11-05_17h01.20.972,untitled,2022.2.4,60.080628173475596,
-150,z,36,3,147,3,,,,,367.82262250001077,368.82260730001144,368.82260730001144,368.82260730001144,368.82260730001144,368.82260730001144,369.82250299991574,369.82250299991574,z,1,0.2386240999912843,975758,001,2022-11-05_17h01.20.972,untitled,2022.2.4,60.080628173475596,
-50,x,37,0,148,0,,,,,370.0895521999337,371.08909069991205,371.08909069991205,371.08909069991205,371.08909069991205,371.08909069991205,372.0891014999943,372.0891014999943,x,1,0.29732860007788986,975758,001,2022-11-05_17h01.20.972,untitled,2022.2.4,60.080628173475596,
150,v,37,1,149,1,,,,,372.4056312999455,373.40562529989984,373.40562529989984,373.40562529989984,373.40562529989984,373.40562529989984,374.40632780001033,374.40632780001033,v,1,0.32440659997519106,975758,001,2022-11-05_17h01.20.972,untitled,2022.2.4,60.080628173475596,
50,c,37,2,150,2,,,,,374.75543719995767,375.75538519991096,375.75538519991096,375.75538519991096,375.75538519991096,375.75538519991096,376.755354099907,376.755354099907,c,1,0.28772529994603246,975758,001,2022-11-05_17h01.20.972,untitled,2022.2.4,60.080628173475596,
-150,z,37,3,151,3,,,,,377.07203499996103,378.0719600999728,378.0719600999728,378.0719600999728,378.0719600999728,378.0719600999728,379.0718371999683,379.0718371999683,z,1,0.26704290008638054,975758,001,2022-11-05_17h01.20.972,untitled,2022.2.4,60.080628173475596,
-50,x,38,0,152,0,,,,,379.35811799997464,380.3594693999039,380.3594693999039,380.3594693999039,380.3594693999039,380.3594693999039,381.3594905999489,381.3594905999489,x,1,0.23826130002271384,975758,001,2022-11-05_17h01.20.972,untitled,2022.2.4,60.080628173475596,
150,v,38,1,153,1,,,,,381.62632869998924,382.6259818999097,382.6259818999097,382.6259818999097,382.6259818999097,382.6259818999097,383.6260175999487,383.6260175999487,v,1,0.31761710008140653,975758,001,2022-11-05_17h01.20.972,untitled,2022.2.4,60.080628173475596,
50,c,38,2,154,2,,,,,383.9759091999149,384.9757903999416,384.9757903999416,384.9757903999416,384.9757903999416,384.9757903999416,385.9759034999879,385.9759034999879,c,1,0.2937872000038624,975758,001,2022-11-05_17h01.20.972,untitled,2022.2.4,60.080628173475596,
-150,z,38,3,155,3,,,,,386.29270649992395,387.2923666998977,387.2923666998977,387.2923666998977,387.2923666998977,387.2923666998977,388.29232099989895,388.29232099989895,z,1,0.27675339998677373,975758,001,2022-11-05_17h01.20.972,untitled,2022.2.4,60.080628173475596,
-50,x,39,0,156,0,,,,,388.59227069991175,389.59218559996225,389.59218559996225,389.59218559996225,389.59218559996225,389.59218559996225,390.59214109997265,390.59214109997265,x,1,0.3259033999638632,975758,001,2022-11-05_17h01.20.972,untitled,2022.2.4,60.080628173475596,
150,v,39,1,157,1,,,,,390.94207359990105,391.94233489991166,391.94233489991166,391.94233489991166,391.94233489991166,391.94233489991166,392.94192539993674,392.94192539993674,v,1,0.2970598000101745,975758,001,2022-11-05_17h01.20.972,untitled,2022.2.4,60.080628173475596,
50,c,39,2,158,2,,,,,393.2588437999366,394.2584665999748,394.2584665999748,394.2584665999748,394.2584665999748,394.2584665999748,395.2584547000006,395.2584547000006,c,1,0.2580625999253243,975758,001,2022-11-05_17h01.20.972,untitled,2022.2.4,60.080628173475596,
-150,z,39,3,159,3,,,,,395.54178599989973,396.5416998999426,396.5416998999426,396.5416998999426,396.5416998999426,396.5416998999426,397.54192230000626,397.54192230000626,z,1,0.37060260004363954,975758,001,2022-11-05_17h01.20.972,untitled,2022.2.4,60.080628173475596,
-50,x,40,0,160,0,,,,,397.94191529997624,398.9414954999229,398.9414954999229,398.9414954999229,398.9414954999229,398.9414954999229,399.94181029999163,399.94181029999163,x,1,0.23767669999506325,975758,001,2022-11-05_17h01.20.972,untitled,2022.2.4,60.080628173475596,
150,v,40,1,161,1,,,,,400.20804399996996,401.20806189998984,401.20806189998984,401.20806189998984,401.20806189998984,401.20806189998984,402.20806699991226,402.20806699991226,v,1,0.3394799999659881,975758,001,2022-11-05_17h01.20.972,untitled,2022.2.4,60.080628173475596,
50,c,40,2,162,2,,,,,402.5748750999337,403.5745664999122,403.5745664999122,403.5745664999122,403.5745664999122,403.5745664999122,404.57463719998486,404.57463719998486,c,1,0.2560580000281334,975758,001,2022-11-05_17h01.20.972,untitled,2022.2.4,60.080628173475596,
-150,z,40,3,163,3,,,,,404.85784939990845,405.85777199990116,405.85777199990116,405.85777199990116,405.85777199990116,405.85777199990116,406.85871900001075,406.85871900001075,z,1,0.23822069994639605,975758,001,2022-11-05_17h01.20.972,untitled,2022.2.4,60.080628173475596,
-50,x,41,0,164,0,,,,,407.12428469990846,408.1242068998981,408.1242068998981,408.1242068998981,408.1242068998981,408.1242068998981,409.12405059998855,409.12405059998855,x,1,0.27158980001695454,975758,001,2022-11-05_17h01.20.972,untitled,2022.2.4,60.080628173475596,
150,v,41,1,165,1,,,,,409.4241908999393,410.4240357999224,410.4240357999224,410.4240357999224,410.4240357999224,410.4240357999224,411.4240485999035,411.4240485999035,v,1,0.29809170006774366,975758,001,2022-11-05_17h01.20.972,untitled,2022.2.4,60.080628173475596,
50,c,41,2,166,2,,,,,411.7408366999589,412.74056099995505,412.74056099995505,412.74056099995505,412.74056099995505,412.74056099995505,413.7409093999304,413.7409093999304,c,1,0.2970222000731155,975758,001,2022-11-05_17h01.20.972,untitled,2022.2.4,60.080628173475596,
-150,z,41,3,167,3,,,,,414.05706189991906,415.05698479991406,415.05698479991406,415.05698479991406,415.05698479991406,415.05698479991406,416.0573510999093,416.0573510999093,z,1,0.3121297999750823,975758,001,2022-11-05_17h01.20.972,untitled,2022.2.4,60.080628173475596,
-50,x,42,0,168,0,,,,,416.3904999999795,417.3902737000026,417.3902737000026,417.3902737000026,417.3902737000026,417.3902737000026,418.3901638999814,418.3901638999814,x,1,0.358249600045383,975758,001,2022-11-05_17h01.20.972,untitled,2022.2.4,60.080628173475596,
150,v,42,1,169,1,,,,,418.773462299956,419.7734661999857,419.7734661999857,419.7734661999857,419.7734661999857,419.7734661999857,420.7733675999334,420.7733675999334,v,1,0.20806019997689873,975758,001,2022-11-05_17h01.20.972,untitled,2022.2.4,60.080628173475596,
50,c,42,2,170,2,,,,,421.00657819991466,422.00653809995856,422.00653809995856,422.00653809995856,422.00653809995856,422.00653809995856,423.0065945999231,423.0065945999231,c,1,0.22435889998450875,975758,001,2022-11-05_17h01.20.972,untitled,2022.2.4,60.080628173475596,
-150,z,42,3,171,3,,,,,423.2565927999094,424.256541699986,424.256541699986,424.256541699986,424.256541699986,424.256541699986,425.2564535998972,425.2564535998972,z,1,0.23366510006599128,975758,001,2022-11-05_17h01.20.972,untitled,2022.2.4,60.080628173475596,
-50,x,43,0,172,0,,,,,425.50635359995067,426.50657849991694,426.50657849991694,426.50657849991694,426.50657849991694,426.50657849991694,427.50635289994534,427.50635289994534,x,1,0.5462501000147313,975758,001,2022-11-05_17h01.20.972,untitled,2022.2.4,60.080628173475596,
150,v,43,1,173,1,,,,,428.0727605998982,429.0728388999123,429.0728388999123,429.0728388999123,429.0728388999123,429.0728388999123,430.0727475999156,430.0727475999156,v,1,0.4291046999860555,975758,001,2022-11-05_17h01.20.972,untitled,2022.2.4,60.080628173475596,
50,c,43,2,174,2,,,,,430.5226765999105,431.52283499995247,431.52283499995247,431.52283499995247,431.52283499995247,431.52283499995247,432.52255170000717,432.52255170000717,c,1,0.31425150006543845,975758,001,2022-11-05_17h01.20.972,untitled,2022.2.4,60.080628173475596,
-150,z,43,3,175,3,,,,,432.855910699931,433.8558357999427,433.8558357999427,433.8558357999427,433.8558357999427,433.8558357999427,434.8557687998982,434.8557687998982,z,1,0.31325509992893785,975758,001,2022-11-05_17h01.20.972,untitled,2022.2.4,60.080628173475596,
-50,x,44,0,176,0,,,,,435.1890323999105,436.1891796999844,436.1891796999844,436.1891796999844,436.1891796999844,436.1891796999844,437.188965999987,437.188965999987,x,1,0.33825519995298237,975758,001,2022-11-05_17h01.20.972,untitled,2022.2.4,60.080628173475596,
150,v,44,1,177,1,,,,,437.5562482000096,438.55595509998966,438.55595509998966,438.55595509998966,438.55595509998966,438.55595509998966,439.5556981000118,439.5556981000118,v,1,0.3090592999942601,975758,001,2022-11-05_17h01.20.972,untitled,2022.2.4,60.080628173475596,
50,c,44,2,178,2,,,,,439.88878399995156,440.88877129997127,440.88877129997127,440.88877129997127,440.88877129997127,440.88877129997127,441.888515300001,441.888515300001,c,1,0.2530327000422403,975758,001,2022-11-05_17h01.20.972,untitled,2022.2.4,60.080628173475596,
-150,z,44,3,179,3,,,,,442.1674582998967,443.1674470999278,443.1674470999278,443.1674470999278,443.1674470999278,443.1674470999278,444.16733470000327,444.16733470000327,z,1,0.7096957999747247,975758,001,2022-11-05_17h01.20.972,untitled,2022.2.4,60.080628173475596,
-50,x,45,0,180,0,,,,,444.90053119999357,445.90057749999687,445.90057749999687,445.90057749999687,445.90057749999687,445.90057749999687,446.9004215999739,446.9004215999739,x,1,0.4049248999217525,975758,001,2022-11-05_17h01.20.972,untitled,2022.2.4,60.080628173475596,
150,v,45,1,181,1,,,,,447.33350279997103,448.333852599957,448.333852599957,448.333852599957,448.333852599957,448.333852599957,449.3338169999188,449.3338169999188,v,1,0.4891937000211328,975758,001,2022-11-05_17h01.20.972,untitled,2022.2.4,60.080628173475596,
50,c,45,2,182,2,,,,,449.8506297999993,450.8503878999036,450.8503878999036,450.8503878999036,450.8503878999036,450.8503878999036,451.8503125999123,451.8503125999123,c,1,0.26133800006937236,975758,001,2022-11-05_17h01.20.972,untitled,2022.2.4,60.080628173475596,
-150,z,45,3,183,3,,,,,452.1334621999413,453.1334625999443,453.1334625999443,453.1334625999443,453.1334625999443,453.1334625999443,454.1335797999054,454.1335797999054,z,1,0.25515640003141016,975758,001,2022-11-05_17h01.20.972,untitled,2022.2.4,60.080628173475596,
-50,x,46,0,184,0,,,,,454.41665559995454,455.416819499922,455.416819499922,455.416819499922,455.416819499922,455.416819499922,456.4165814999724,456.4165814999724,x,1,0.3150984999956563,975758,001,2022-11-05_17h01.20.972,untitled,2022.2.4,60.080628173475596,
150,v,46,1,185,1,,,,,456.75273919990286,457.75411129998975,457.75411129998975,457.75411129998975,457.75411129998975,457.75411129998975,458.75405200000387,458.75405200000387,v,1,15.487432800000533,975758,001,2022-11-05_17h01.20.972,untitled,2022.2.4,60.080628173475596,
50,c,46,2,186,2,,,,,474.2701259999303,475.2696416999679,475.2696416999679,475.2696416999679,475.2696416999679,475.2696416999679,476.2696954999119,476.2696954999119,c,1,1.0293018999509513,975758,001,2022-11-05_17h01.20.972,untitled,2022.2.4,60.080628173475596,
-150,z,46,3,187,3,,,,,477.31973639992066,478.3194424000103,478.3194424000103,478.3194424000103,478.3194424000103,478.3194424000103,479.3193546999246,479.3193546999246,z,1,0.5393996000057086,975758,001,2022-11-05_17h01.20.972,untitled,2022.2.4,60.080628173475596,
-50,x,47,0,188,0,,,,,479.8859562999569,480.88591449998785,480.88591449998785,480.88591449998785,480.88591449998785,480.88591449998785,481.8857109999517,481.8857109999517,x,1,0.5082312999293208,975758,001,2022-11-05_17h01.20.972,untitled,2022.2.4,60.080628173475596,
150,v,47,1,189,1,,,,,482.41910469997674,483.41920919995755,483.41920919995755,483.41920919995755,483.41920919995755,483.41920919995755,484.41917219990864,484.41917219990864,v,1,0.30489879997912794,975758,001,2022-11-05_17h01.20.972,untitled,2022.2.4,60.080628173475596,
50,c,47,2,190,2,,,,,484.7522272999631,485.75228469993453,485.75228469993453,485.75228469993453,485.75228469993453,485.75228469993453,486.75221820001025,486.75221820001025,c,1,0.6573562000412494,975758,001,2022-11-05_17h01.20.972,untitled,2022.2.4,60.080628173475596,
-150,z,47,3,191,3,,,,,487.43552369996905,488.4352953999769,488.4352953999769,488.4352953999769,488.4352953999769,488.4352953999769,489.4352710999083,489.4352710999083,z,1,0.320714799920097,975758,001,2022-11-05_17h01.20.972,untitled,2022.2.4,60.080628173475596,
-50,x,48,0,192,0,,,,,489.78654159989674,490.7853085999377,490.7853085999377,490.7853085999377,490.7853085999377,490.7853085999377,491.78528049995657,491.78528049995657,x,1,0.2766146999783814,975758,001,2022-11-05_17h01.20.972,untitled,2022.2.4,60.080628173475596,
150,v,48,1,193,1,,,,,492.0851693999721,493.0853332999395,493.0853332999395,493.0853332999395,493.0853332999395,493.0853332999395,494.0851118999999,494.0851118999999,v,1,0.273001299938187,975758,001,2022-11-05_17h01.20.972,untitled,2022.2.4,60.080628173475596,
50,c,48,2,194,2,,,,,494.3851027999772,495.3851461999584,495.3851461999584,495.3851461999584,495.3851461999584,495.3851461999584,496.38482549996115,496.38482549996115,c,1,0.30845269991550595,975758,001,2022-11-05_17h01.20.972,untitled,2022.2.4,60.080628173475596,
-150,z,48,3,195,3,,,,,496.7183300999459,497.71800110000186,497.71800110000186,497.71800110000186,497.71800110000186,497.71800110000186,498.71800469991285,498.71800469991285,z,1,0.304073000093922,975758,001,2022-11-05_17h01.20.972,untitled,2022.2.4,60.080628173475596,
-50,x,49,0,196,0,,,,,499.0513204999734,500.0512854999397,500.0512854999397,500.0512854999397,500.0512854999397,500.0512854999397,501.05124159995466,501.05124159995466,x,1,0.7723291999427602,975758,001,2022-11-05_17h01.20.972,untitled,2022.2.4,60.080628173475596,
150,v,49,1,197,1,,,,,501.85120429995004,502.8510274,502.8510274,502.8510274,502.8510274,502.8510274,503.85106169991195,503.85106169991195,v,1,0.47530000004917383,975758,001,2022-11-05_17h01.20.972,untitled,2022.2.4,60.080628173475596,
50,c,49,2,198,2,,,,,504.35098409990314,505.3510198999429,505.3510198999429,505.3510198999429,505.3510198999429,505.3510198999429,506.3508268999867,506.3508268999867,c,1,0.6057756999507546,975758,001,2022-11-05_17h01.20.972,untitled,2022.2.4,60.080628173475596,
-150,z,49,3,199,3,,,,,506.9800379999215,507.9796477999771,507.9796477999771,507.9796477999771,507.9796477999771,507.9796477999771,508.9794988000067,508.9794988000067,z,1,0.2717153000412509,975758,001,2022-11-05_17h01.20.972,untitled,2022.2.4,60.080628173475596,
-50,x,50,0,200,0,,,,,509.27973939990625,510.2793972999789,510.2793972999789,510.2793972999789,510.2793972999789,510.2793972999789,511.2794729999732,511.2794729999732,x,1,0.5388452000916004,975758,001,2022-11-05_17h01.20.972,untitled,2022.2.4,60.080628173475596,
150,v,50,1,201,1,,,,,511.84624809992965,512.8460080999648,512.8460080999648,512.8460080999648,512.8460080999648,512.8460080999648,513.8460281000007,513.8460281000007,v,1,0.30801479995716363,975758,001,2022-11-05_17h01.20.972,untitled,2022.2.4,60.080628173475596,
50,c,50,2,202,2,,,,,514.1792106999783,515.1792688999558,515.1792688999558,515.1792688999558,515.1792688999558,515.1792688999558,516.1791765999515,516.1791765999515,c,1,0.4607843999983743,975758,001,2022-11-05_17h01.20.972,untitled,2022.2.4,60.080628173475596,
-150,z,50,3,203,3,,,,,516.6624775999226,517.662394599989,517.662394599989,517.662394599989,517.662394599989,517.662394599989,518.6623548999196,518.6623548999196,z,1,0.3955279999645427,975758,001,2022-11-05_17h01.20.972,untitled,2022.2.4,60.080628173475596,
-50,x,51,0,204,0,,,,,519.0788735999959,520.0789014999755,520.0789014999755,520.0789014999755,520.0789014999755,520.0789014999755,521.078766199993,521.078766199993,x,1,0.29233660001773387,975758,001,2022-11-05_17h01.20.972,untitled,2022.2.4,60.080628173475596,
150,v,51,1,205,1,,,,,521.3955215999158,522.39532339992,522.39532339992,522.39532339992,522.39532339992,522.39532339992,523.3951063998975,523.3951063998975,v,1,0.27680220000911504,975758,001,2022-11-05_17h01.20.972,untitled,2022.2.4,60.080628173475596,
50,c,51,2,206,2,,,,,523.6951707999688,524.6951796999201,524.6951796999201,524.6951796999201,524.6951796999201,524.6951796999201,525.6954077999108,525.6954077999108,c,1,0.29732559993863106,975758,001,2022-11-05_17h01.20.972,untitled,2022.2.4,60.080628173475596,
-150,z,51,3,207,3,,,,,526.0118201998994,527.0117586998967,527.0117586998967,527.0117586998967,527.0117586998967,527.0117586998967,528.0116954999976,528.0116954999976,z,1,0.3102538000093773,975758,001,2022-11-05_17h01.20.972,untitled,2022.2.4,60.080628173475596,
-50,x,52,0,208,0,,,,,528.3450375999091,529.3449605999049,529.3449605999049,529.3449605999049,529.3449605999049,529.3449605999049,530.3444388000062,530.3444388000062,x,1,0.27148550003767014,975758,001,2022-11-05_17h01.20.972,untitled,2022.2.4,60.080628173475596,
150,v,52,1,209,1,,,,,530.6445087000029,531.6447620999534,531.6447620999534,531.6447620999534,531.6447620999534,531.6447620999534,532.6445455999346,532.6445455999346,v,1,0.3523176000453532,975758,001,2022-11-05_17h01.20.972,untitled,2022.2.4,60.080628173475596,
50,c,52,2,210,2,,,,,533.0316741999704,534.0277727999492,534.0277727999492,534.0277727999492,534.0277727999492,534.0444474999094,535.0278367999708,535.0278367999708,c,1,0.2709766000043601,975758,001,2022-11-05_17h01.20.972,untitled,2022.2.4,60.080628173475596,
-150,z,52,3,211,3,,,,,535.3277555999812,536.3276613999624,536.3276613999624,536.3276613999624,536.3276613999624,536.3276613999624,537.3275673999451,537.3275673999451,z,1,0.706313099944964,975758,001,2022-11-05_17h01.20.972,untitled,2022.2.4,60.080628173475596,
-50,x,53,0,212,0,,,,,538.0608378999168,539.0608532999177,539.0608532999177,539.0608532999177,539.0608532999177,539.0608532999177,540.0608542999253,540.0608542999253,x,1,0.28258600004483014,975758,001,2022-11-05_17h01.20.972,untitled,2022.2.4,60.080628173475596,
150,v,53,1,213,1,,,,,540.3607385999057,541.360861999914,541.360861999914,541.360861999914,541.360861999914,541.360861999914,542.3605218000012,542.3605218000012,v,1,0.24710989999584854,975758,001,2022-11-05_17h01.20.972,untitled,2022.2.4,60.080628173475596,
50,c,53,2,214,2,,,,,542.6271670999704,543.6273860000074,543.6273860000074,543.6273860000074,543.6273860000074,543.6273860000074,544.6271168999374,544.6271168999374,c,1,0.354300000006333,975758,001,2022-11-05_17h01.20.972,untitled,2022.2.4,60.080628173475596,
-150,z,53,3,215,3,,,,,545.010371399927,546.0107255999465,546.0107255999465,546.0107255999465,546.0107255999465,546.0107255999465,547.0103764999658,547.0103764999658,z,1,0.2549228999996558,975758,001,2022-11-05_17h01.20.972,untitled,2022.2.4,60.080628173475596,
-50,x,54,0,216,0,,,,,547.2935191999422,548.2935376999667,548.2935376999667,548.2935376999667,548.2935376999667,548.2935376999667,549.2934705999214,549.2934705999214,x,1,0.30111280002165586,975758,001,2022-11-05_17h01.20.972,untitled,2022.2.4,60.080628173475596,
150,v,54,1,217,1,,,,,549.6268217999022,550.6266765999608,550.6266765999608,550.6266765999608,550.6266765999608,550.6266765999608,551.6267993999645,551.6267993999645,v,1,0.2769725000252947,975758,001,2022-11-05_17h01.20.972,untitled,2022.2.4,60.080628173475596,
50,c,54,2,218,2,,,,,551.9265784999589,552.9268061999464,552.9268061999464,552.9268061999464,552.9268061999464,552.9268061999464,553.9268930999096,553.9268930999096,c,1,0.27540149993728846,975758,001,2022-11-05_17h01.20.972,untitled,2022.2.4,60.080628173475596,
-150,z,54,3,219,3,,,,,554.2268391000107,555.226499499986,555.226499499986,555.226499499986,555.226499499986,555.226499499986,556.2264661999652,556.2264661999652,z,1,0.2841667999746278,975758,001,2022-11-05_17h01.20.972,untitled,2022.2.4,60.080628173475596,
-50,x,55,0,220,0,,,,,556.5429490999086,557.5429812999209,557.5429812999209,557.5429812999209,557.5429812999209,557.5429812999209,558.5430639999686,558.5430639999686,x,1,0.20518659998197109,975758,001,2022-11-05_17h01.20.972,untitled,2022.2.4,60.080628173475596,
150,v,55,1,221,1,,,,,558.7761383999605,559.7762176999822,559.7762176999822,559.7762176999822,559.7762176999822,559.7762176999822,560.7761088999687,560.7761088999687,v,1,0.27739719999954104,975758,001,2022-11-05_17h01.20.972,untitled,2022.2.4,60.080628173475596,
50,c,55,2,222,2,,,,,561.0759631999535,562.0760145999957,562.0760145999957,562.0760145999957,562.0760145999957,562.0760145999957,563.0758698999416,563.0758698999416,c,1,0.2552091999677941,975758,001,2022-11-05_17h01.20.972,untitled,2022.2.4,60.080628173475596,
-150,z,55,3,223,3,,,,,563.3591140999924,564.3592695998959,564.3592695998959,564.3592695998959,564.3592695998959,564.3592695998959,565.3590017999522,565.3590017999522,z,1,0.4586616999004036,975758,001,2022-11-05_17h01.20.972,untitled,2022.2.4,60.080628173475596,
-50,x,56,0,224,0,,,,,565.8427437999053,566.8422154999571,566.8422154999571,566.8422154999571,566.8422154999571,566.8422154999571,567.8421787999105,567.8421787999105,x,1,0.46441789995878935,975758,001,2022-11-05_17h01.20.972,untitled,2022.2.4,60.080628173475596,
150,v,56,1,225,1,,,,,568.3258085999405,569.3254462999757,569.3254462999757,569.3254462999757,569.3254462999757,569.3254462999757,570.3253552999813,570.3253552999813,v,1,0.9791872000787407,975758,001,2022-11-05_17h01.20.972,untitled,2022.2.4,60.080628173475596,
50,c,56,2,226,2,,,,,571.3254158999771,572.3252171999775,572.3252171999775,572.3252171999775,572.3252171999775,572.3252171999775,573.3253385999706,573.3253385999706,c,1,0.23002739995718002,975758,001,2022-11-05_17h01.20.972,untitled,2022.2.4,60.080628173475596,
-150,z,56,3,227,3,,,,,573.5751080999617,574.575106299948,574.575106299948,574.575106299948,574.575106299948,574.575106299948,575.5750795999775,575.5750795999775,z,1,0.24635560007300228,975758,001,2022-11-05_17h01.20.972,untitled,2022.2.4,60.080628173475596,
-50,x,57,0,228,0,,,,,575.8417154999916,576.8419089999516,576.8419089999516,576.8419089999516,576.8419089999516,576.8419089999516,577.8414916999172,577.8414916999172,x,1,0.2929391999496147,975758,001,2022-11-05_17h01.20.972,untitled,2022.2.4,60.080628173475596,
150,v,57,1,229,1,,,,,578.1582089998992,579.1581601999933,579.1581601999933,579.1581601999933,579.1581601999933,579.1581601999933,580.1580132999225,580.1580132999225,v,1,0.29440429992973804,975758,001,2022-11-05_17h01.20.972,untitled,2022.2.4,60.080628173475596,
50,c,57,2,230,2,,,,,580.4746426999336,581.4745709999697,581.4745709999697,581.4745709999697,581.4745709999697,581.4745709999697,582.4744896999327,582.4744896999327,c,1,0.24505549995228648,975758,001,2022-11-05_17h01.20.972,untitled,2022.2.4,60.080628173475596,
-150,z,57,3,231,3,,,,,582.7412727999035,583.7409742999589,583.7409742999589,583.7409742999589,583.7409742999589,583.7409742999589,584.7410417000065,584.7410417000065,z,1,0.2380008000181988,975758,001,2022-11-05_17h01.20.972,untitled,2022.2.4,60.080628173475596,
-50,x,58,0,232,0,,,,,585.0075879999204,586.007574499934,586.007574499934,586.007574499934,586.007574499934,586.007574499934,587.0074727999745,587.0074727999745,x,1,0.2658921000547707,975758,001,2022-11-05_17h01.20.972,untitled,2022.2.4,60.080628173475596,
150,v,58,1,233,1,,,,,587.2910731999436,588.2907640999183,588.2907640999183,588.2907640999183,588.2907640999183,588.2907640999183,589.2906413999153,589.2906413999153,v,1,0.24683229997754097,975758,001,2022-11-05_17h01.20.972,untitled,2022.2.4,60.080628173475596,
50,c,58,2,234,2,,,,,589.5573401999427,590.5572108000051,590.5572108000051,590.5572108000051,590.5572108000051,590.5572108000051,591.55724679993,591.55724679993,c,1,0.2430967999389395,975758,001,2022-11-05_17h01.20.972,untitled,2022.2.4,60.080628173475596,
-150,z,58,3,235,3,,,,,591.8238040999277,592.8238760000095,592.8238760000095,592.8238760000095,592.8238760000095,592.8238760000095,593.8236401999602,593.8236401999602,z,1,0.4320060999598354,975758,001,2022-11-05_17h01.20.972,untitled,2022.2.4,60.080628173475596,
-50,x,59,0,236,0,,,,,594.2737629999174,595.27364759997,595.27364759997,595.27364759997,595.27364759997,595.27364759997,596.2736764999572,596.2736764999572,x,1,0.2269720999756828,975758,001,2022-11-05_17h01.20.972,untitled,2022.2.4,60.080628173475596,
150,v,59,1,237,1,,,,,596.5236065000063,597.5233965999214,597.5233965999214,597.5233965999214,597.5233965999214,597.5233965999214,598.5234817999881,598.5234817999881,v,1,0.22465790004935116,975758,001,2022-11-05_17h01.20.972,untitled,2022.2.4,60.080628173475596,
50,c,59,2,238,2,,,,,598.7733900999883,599.7733861999586,599.7733861999586,599.7733861999586,599.7733861999586,599.7733861999586,600.7734860999044,600.7734860999044,c,1,0.2883852000813931,975758,001,2022-11-05_17h01.20.972,untitled,2022.2.4,60.080628173475596,
-150,z,59,3,239,3,,,,,601.0898186999839,602.0898370000068,602.0898370000068,602.0898370000068,602.0898370000068,602.0898370000068,603.08972119994,603.08972119994,z,1,0.5083070999244228,975758,001,2022-11-05_17h01.20.972,untitled,2022.2.4,60.080628173475596,
-50,x,60,0,240,0,,,,,603.6229382999009,604.6229972000001,604.6229972000001,604.6229972000001,604.6229972000001,604.6229972000001,605.6230206999462,605.6230206999462,x,1,0.3055175000336021,975758,001,2022-11-05_17h01.20.972,untitled,2022.2.4,60.080628173475596,
150,v,60,1,241,1,,,,,605.9562109999824,606.9561888999306,606.9561888999306,606.9561888999306,606.9561888999306,606.9561888999306,607.9560264999745,607.9560264999745,v,1,0.23816800001077354,975758,001,2022-11-05_17h01.20.972,untitled,2022.2.4,60.080628173475596,
50,c,60,2,242,2,,,,,608.2226289999671,609.2226478999946,609.2226478999946,609.2226478999946,609.2226478999946,609.2226478999946,610.2225539999781,610.2225539999781,c,1,0.29331499990075827,975758,001,2022-11-05_17h01.20.972,untitled,2022.2.4,60.080628173475596,
-150,z,60,3,243,3,,,,,610.5391825999832,611.5391254998976,611.5391254998976,611.5391254998976,611.5391254998976,611.5391254998976,612.5392910999944,612.5392910999944,z,1,0.271149699925445,975758,001,2022-11-05_17h01.20.972,untitled,2022.2.4,60.080628173475596,
-50,x,61,0,244,0,,,,,612.8390080999816,613.8393891999731,613.8393891999731,613.8393891999731,613.8393891999731,613.8393891999731,614.8388878999976,614.8388878999976,x,1,0.2837911000242457,975758,001,2022-11-05_17h01.20.972,untitled,2022.2.4,60.080628173475596,
150,v,61,1,245,1,,,,,615.1388333999785,616.1388341999846,616.1388341999846,616.1388341999846,616.1388341999846,616.1388341999846,617.1388337999815,617.1388337999815,v,1,0.2411839000415057,975758,001,2022-11-05_17h01.20.972,untitled,2022.2.4,60.080628173475596,
50,c,61,2,246,2,,,,,617.4053654999007,618.4056224999949,618.4056224999949,618.4056224999949,618.4056224999949,618.4056224999949,619.4052176999394,619.4052176999394,c,1,0.2140006999252364,975758,001,2022-11-05_17h01.20.972,untitled,2022.2.4,60.080628173475596,
-150,z,61,3,247,3,,,,,619.6385948999086,620.638452299987,620.638452299987,620.638452299987,620.638452299987,620.638452299987,621.6384977999842,621.6384977999842,z,1,0.254621300031431,975758,001,2022-11-05_17h01.20.972,untitled,2022.2.4,60.080628173475596,
-50,x,62,0,248,0,,,,,621.9217432999285,622.921784899896,622.921784899896,622.921784899896,622.921784899896,622.921784899896,623.9216706999578,623.9216706999578,x,1,0.26810570002999157,975758,001,2022-11-05_17h01.20.972,untitled,2022.2.4,60.080628173475596,
150,v,62,1,249,1,,,,,624.2216045999667,625.2219212999335,625.2219212999335,625.2219212999335,625.2219212999335,625.2219212999335,626.2215332000051,626.2215332000051,v,1,0.38850639993324876,975758,001,2022-11-05_17h01.20.972,untitled,2022.2.4,60.080628173475596,
50,c,62,2,250,2,,,,,626.6381658999017,627.6382633999456,627.6382633999456,627.6382633999456,627.6382633999456,627.6382633999456,628.6385448999936,628.6385448999936,c,1,0.27417119999881834,975758,001,2022-11-05_17h01.20.972,untitled,2022.2.4,60.080628173475596,
-150,z,62,3,251,3,,,,,628.9379451998975,629.937886599917,629.937886599917,629.937886599917,629.937886599917,629.937886599917,630.9379733999958,630.9379733999958,z,1,0.33843849995173514,975758,001,2022-11-05_17h01.20.972,untitled,2022.2.4,60.080628173475596,
-50,x,63,0,252,0,,,,,631.3061521999771,632.3044286000077,632.3044286000077,632.3044286000077,632.3044286000077,632.3212217999389,633.3048541999888,633.3048541999888,x,1,0.2601480999728665,975758,001,2022-11-05_17h01.20.972,untitled,2022.2.4,60.080628173475596,
150,v,63,1,253,1,,,,,633.587603299995,634.5879893999081,634.5879893999081,634.5879893999081,634.5879893999081,634.5879893999081,635.5874249999179,635.5874249999179,v,1,0.4214095000643283,975758,001,2022-11-05_17h01.20.972,untitled,2022.2.4,60.080628173475596,
50,c,63,2,254,2,,,,,636.0374169999268,637.0396221999545,637.0396221999545,637.0396221999545,637.0396221999545,637.0396221999545,638.0250600998988,638.0250600998988,c,1,0.3004950999747962,975758,001,2022-11-05_17h01.20.972,untitled,2022.2.4,60.080628173475596,
-150,z,63,3,255,3,,,,,638.3417796998983,639.341685499996,639.341685499996,639.341685499996,639.341685499996,639.341685499996,640.3416107000085,640.3416107000085,z,1,0.2644578000763431,975758,001,2022-11-05_17h01.20.972,untitled,2022.2.4,60.080628173475596,
-50,x,64,0,256,0,,,,,640.624894999899,641.6250559999608,641.6250559999608,641.6250559999608,641.6250559999608,641.6250559999608,642.6250221999362,642.6250221999362,x,1,0.2886762999696657,975758,001,2022-11-05_17h01.20.972,untitled,2022.2.4,60.080628173475596,
150,v,64,1,257,1,,,,,642.9413542000111,643.9413858999033,643.9413858999033,643.9413858999033,643.9413858999033,643.9413858999033,644.9412066999357,644.9412066999357,v,1,0.29369970003608614,975758,001,2022-11-05_17h01.20.972,untitled,2022.2.4,60.080628173475596,
50,c,64,2,258,2,,,,,645.2535643998999,646.2534463999327,646.2534463999327,646.2534463999327,646.2534463999327,646.2534463999327,647.2534622999374,647.2534622999374,c,1,0.6911146999336779,975758,001,2022-11-05_17h01.20.972,untitled,2022.2.4,60.080628173475596,
-150,z,64,3,259,3,,,,,647.9698236999102,648.9699062999571,648.9699062999571,648.9699062999571,648.9699062999571,648.9699062999571,649.9698902999517,649.9698902999517,z,1,0.26697849994525313,975758,001,2022-11-05_17h01.20.972,untitled,2022.2.4,60.080628173475596,
-50,x,65,0,260,0,,,,,650.2529981000116,651.2531389999203,651.2531389999203,651.2531389999203,651.2531389999203,651.2531389999203,652.2529610999627,652.2529610999627,x,1,0.39143920002970845,975758,001,2022-11-05_17h01.20.972,untitled,2022.2.4,60.080628173475596,
150,v,65,1,261,1,,,,,652.669587399927,653.6695117999334,653.6695117999334,653.6695117999334,653.6695117999334,653.6695117999334,654.6695460999617,654.6695460999617,v,1,0.24273199995514005,975758,001,2022-11-05_17h01.20.972,untitled,2022.2.4,60.080628173475596,
50,c,65,2,262,2,,,,,654.9361359999748,655.9362469000043,655.9362469000043,655.9362469000043,655.9362469000043,655.9362469000043,656.9359868000029,656.9359868000029,c,1,0.2396884000627324,975758,001,2022-11-05_17h01.20.972,untitled,2022.2.4,60.080628173475596,
-150,z,65,3,263,3,,,,,657.2028513998957,658.2025141000049,658.2025141000049,658.2025141000049,658.2025141000049,658.2025141000049,659.2025775999064,659.2025775999064,z,1,0.38425420003477484,975758,001,2022-11-05_17h01.20.972,untitled,2022.2.4,60.080628173475596,
-50,x,66,0,264,0,,,,,659.6025276998989,660.6024633999914,660.6024633999914,660.6024633999914,660.6024633999914,660.6024633999914,661.6023683999665,661.6023683999665,x,1,0.5634934999980032,975758,001,2022-11-05_17h01.20.972,untitled,2022.2.4,60.080628173475596,
150,v,66,1,265,1,,,,,662.1856382999104,663.1855763999047,663.1855763999047,663.1855763999047,663.1855763999047,663.1855763999047,664.1855242999736,664.1855242999736,v,1,0.24586659995839,975758,001,2022-11-05_17h01.20.972,untitled,2022.2.4,60.080628173475596,
50,c,66,2,266,2,,,,,664.4520494999597,665.4521649999078,665.4521649999078,665.4521649999078,665.4521649999078,665.4521649999078,666.4520040999632,666.4520040999632,c,1,0.23942149989306927,975758,001,2022-11-05_17h01.20.972,untitled,2022.2.4,60.080628173475596,
-150,z,66,3,267,3,,,,,666.718709699926,667.7185076999012,667.7185076999012,667.7185076999012,667.7185076999012,667.7185076999012,668.7185075999005,668.7185075999005,z,1,0.33187510003335774,975758,001,2022-11-05_17h01.20.972,untitled,2022.2.4,60.080628173475596,
-50,x,67,0,268,0,,,,,669.0683428999037,670.0683386999881,670.0683386999881,670.0683386999881,670.0683386999881,670.0683386999881,671.0683174999431,671.0683174999431,x,1,0.3913055999437347,975758,001,2022-11-05_17h01.20.972,untitled,2022.2.4,60.080628173475596,
150,v,67,1,269,1,,,,,671.4849647999508,672.4849982999731,672.4849982999731,672.4849982999731,672.4849982999731,672.4849982999731,673.484882599907,673.484882599907,v,1,0.3583740999456495,975758,001,2022-11-05_17h01.20.972,untitled,2022.2.4,60.080628173475596,
50,c,67,2,270,2,,,,,673.8683852999238,674.868184599909,674.868184599909,674.868184599909,674.868184599909,674.868184599909,675.8684326999355,675.8684326999355,c,1,0.49685949995182455,975758,001,2022-11-05_17h01.20.972,untitled,2022.2.4,60.080628173475596,
-150,z,67,3,271,3,,,,,676.3861393999541,677.3846502999077,677.3846502999077,677.3846502999077,677.3846502999077,677.4015800999478,678.3846829999238,678.3846829999238,z,1,0.263050299952738,975758,001,2022-11-05_17h01.20.972,untitled,2022.2.4,60.080628173475596,
-50,x,68,0,272,0,,,,,678.667904999922,679.6677469999995,679.6677469999995,679.6677469999995,679.6677469999995,679.6677469999995,680.6677568999585,680.6677568999585,x,1,0.43083289999049157,975758,001,2022-11-05_17h01.20.972,untitled,2022.2.4,60.080628173475596,
150,v,68,1,273,1,,,,,681.1175904999254,682.1175536999945,682.1175536999945,682.1175536999945,682.1175536999945,682.1175536999945,683.1177818999859,683.1177818999859,v,1,0.2959450999042019,975758,001,2022-11-05_17h01.20.972,untitled,2022.2.4,60.080628173475596,
50,c,68,2,274,2,,,,,683.4340471999021,684.4344764999114,684.4344764999114,684.4344764999114,684.4344764999114,684.4344764999114,685.4341266999254,685.4341266999254,c,1,0.7084401999600232,975758,001,2022-11-05_17h01.20.972,untitled,2022.2.4,60.080628173475596,
-150,z,68,3,275,3,,,,,686.1672829999588,687.1674568000017,687.1674568000017,687.1674568000017,687.1674568000017,687.1674568000017,688.1672455999069,688.1672455999069,z,1,0.24583030003122985,975758,001,2022-11-05_17h01.20.972,untitled,2022.2.4,60.080628173475596,
-50,x,69,0,276,0,,,,,688.4340256999712,689.4339513999876,689.4339513999876,689.4339513999876,689.4339513999876,689.4339513999876,690.4336970999138,690.4336970999138,x,1,0.34165349998511374,975758,001,2022-11-05_17h01.20.972,untitled,2022.2.4,60.080628173475596,
150,v,69,1,277,1,,,,,690.8006553999148,691.8004362999927,691.8004362999927,691.8004362999927,691.8004362999927,691.8004362999927,692.8002101999009,692.8002101999009,v,1,0.31588160002138466,975758,001,2022-11-05_17h01.20.972,untitled,2022.2.4,60.080628173475596,
50,c,69,2,278,2,,,,,693.13342009997,694.1335140999872,694.1335140999872,694.1335140999872,694.1335140999872,694.1335140999872,695.1333353999071,695.1333353999071,c,1,0.508568900055252,975758,001,2022-11-05_17h01.20.972,untitled,2022.2.4,60.080628173475596,
-150,z,69,3,279,3,,,,,695.6665806999663,696.6669009999605,696.6669009999605,696.6669009999605,696.6669009999605,696.6669009999605,697.6664835999254,697.6664835999254,z,1,1.0214209000114352,975758,001,2022-11-05_17h01.20.972,untitled,2022.2.4,60.080628173475596,
-50,x,70,0,280,0,,,,,698.7164658999536,699.7164124000119,699.7164124000119,699.7164124000119,699.7164124000119,699.7164124000119,700.716406499967,700.716406499967,x,1,0.23108800000045449,975758,001,2022-11-05_17h01.20.972,untitled,2022.2.4,60.080628173475596,
150,v,70,1,281,1,,,,,700.9664712999947,701.9662857999792,701.9662857999792,701.9662857999792,701.9662857999792,701.9662857999792,702.9662111999933,702.9662111999933,v,1,0.27120119996834546,975758,001,2022-11-05_17h01.20.972,untitled,2022.2.4,60.080628173475596,
50,c,70,2,282,2,,,,,703.2660661999835,704.2661872999743,704.2661872999743,704.2661872999743,704.2661872999743,704.2661872999743,705.2660457999445,705.2660457999445,c,1,0.44389839994255453,975758,001,2022-11-05_17h01.20.972,untitled,2022.2.4,60.080628173475596,
-150,z,70,3,283,3,,,,,705.732612599968,706.7325703999959,706.7325703999959,706.7325703999959,706.7325703999959,706.7325703999959,707.7325406000018,707.7325406000018,z,1,0.2563641000306234,975758,001,2022-11-05_17h01.20.972,untitled,2022.2.4,60.080628173475596,
-50,x,71,0,284,0,,,,,708.0158427999122,709.015783199924,709.015783199924,709.015783199924,709.015783199924,709.015783199924,710.015663899947,710.015663899947,x,1,0.2175303999101743,975758,001,2022-11-05_17h01.20.972,untitled,2022.2.4,60.080628173475596,
150,v,71,1,285,1,,,,,710.248862599954,711.2488968999824,711.2488968999824,711.2488968999824,711.2488968999824,711.2488968999824,712.248937599943,712.248937599943,v,1,0.2478289999999106,975758,001,2022-11-05_17h01.20.972,untitled,2022.2.4,60.080628173475596,
50,c,71,2,286,2,,,,,712.5155694999266,713.5153294999618,713.5153294999618,713.5153294999618,713.5153294999618,713.5153294999618,714.5154016999295,714.5154016999295,c,1,0.6504712000023574,975758,001,2022-11-05_17h01.20.972,untitled,2022.2.4,60.080628173475596,
-150,z,71,3,287,3,,,,,715.1823714999482,716.181876199902,716.181876199902,716.181876199902,716.181876199902,716.181876199902,717.1818942999234,717.1818942999234,z,1,0.28410940000321716,975758,001,2022-11-05_17h01.20.972,untitled,2022.2.4,60.080628173475596,
-50,x,72,0,288,0,,,,,717.4990008999594,718.498966199928,718.498966199928,718.498966199928,718.498966199928,718.498966199928,719.498424999998,719.498424999998,x,1,0.27648790006060153,975758,001,2022-11-05_17h01.20.972,untitled,2022.2.4,60.080628173475596,
150,v,72,1,289,1,,,,,719.798303599935,720.7982761999592,720.7982761999592,720.7982761999592,720.7982761999592,720.7982761999592,721.7981378999539,721.7981378999539,v,1,0.2672913999995217,975758,001,2022-11-05_17h01.20.972,untitled,2022.2.4,60.080628173475596,
50,c,72,2,290,2,,,,,722.0814559999853,723.0814204999479,723.0814204999479,723.0814204999479,723.0814204999479,723.0814204999479,724.0814227999654,724.0814227999654,c,1,0.3049854999408126,975758,001,2022-11-05_17h01.20.972,untitled,2022.2.4,60.080628173475596,
-150,z,72,3,291,3,,,,,724.4145794999786,725.4146716999821,725.4146716999821,725.4146716999821,725.4146716999821,725.4146716999821,726.4145148999523,726.4145148999523,z,1,0.3174783999565989,975758,001,2022-11-05_17h01.20.972,untitled,2022.2.4,60.080628173475596,
-50,x,73,0,292,0,,,,,726.7645291999215,727.7644250999438,727.7644250999438,727.7644250999438,727.7644250999438,727.7644250999438,728.7643455999205,728.7643455999205,x,1,0.272639499977231,975758,001,2022-11-05_17h01.20.972,untitled,2022.2.4,60.080628173475596,
150,v,73,1,293,1,,,,,729.0642691999674,730.064367499901,730.064367499901,730.064367499901,730.064367499901,730.064367499901,731.064217499923,731.064217499923,v,1,0.32447410002350807,975758,001,2022-11-05_17h01.20.972,untitled,2022.2.4,60.080628173475596,
50,c,73,2,294,2,,,,,731.4141626999481,732.4141130999196,732.4141130999196,732.4141130999196,732.4141130999196,732.4141130999196,733.4141838999931,733.4141838999931,c,1,0.23367960005998611,975758,001,2022-11-05_17h01.20.972,untitled,2022.2.4,60.080628173475596,
-150,z,73,3,295,3,,,,,733.6643037999747,734.6639034999534,734.6639034999534,734.6639034999534,734.6639034999534,734.6639034999534,735.6638906999724,735.6638906999724,z,1,0.26423859992064536,975758,001,2022-11-05_17h01.20.972,untitled,2022.2.4,60.080628173475596,
-50,x,74,0,296,0,,,,,735.9471950998995,736.947169699939,736.947169699939,736.947169699939,736.947169699939,736.947169699939,737.947150999913,737.947150999913,x,1,0.26222020003478974,975758,001,2022-11-05_17h01.20.972,untitled,2022.2.4,60.080628173475596,
150,v,74,1,297,1,,,,,738.230335899978,739.2304368999321,739.2304368999321,739.2304368999321,739.2304368999321,739.2304368999321,740.2303283999208,740.2303283999208,v,1,0.35089340002741665,975758,001,2022-11-05_17h01.20.972,untitled,2022.2.4,60.080628173475596,
50,c,74,2,298,2,,,,,740.6135243999306,741.6135844999226,741.6135844999226,741.6135844999226,741.6135844999226,741.6135844999226,742.6134201999521,742.6134201999521,c,1,0.267141200019978,975758,001,2022-11-05_17h01.20.972,untitled,2022.2.4,60.080628173475596,
-150,z,74,3,299,3,,,,,742.8968216999201,743.8966527999146,743.8966527999146,743.8966527999146,743.8966527999146,743.8966527999146,744.8967388999881,744.8967388999881,z,1,0.30447440000716597,975758,001,2022-11-05_17h01.20.972,untitled,2022.2.4,60.080628173475596,
-50,x,75,0,300,0,,,,,745.2299091999885,746.2299035999458,746.2299035999458,746.2299035999458,746.2299035999458,746.2299035999458,747.2298094999278,747.2298094999278,x,1,0.27928669995162636,975758,001,2022-11-05_17h01.20.972,untitled,2022.2.4,60.080628173475596,
150,v,75,1,301,1,,,,,747.5296879999805,748.5297283999389,748.5297283999389,748.5297283999389,748.5297283999389,748.5297283999389,749.5300404999871,749.5300404999871,v,1,0.2743213000940159,975758,001,2022-11-05_17h01.20.972,untitled,2022.2.4,60.080628173475596,
50,c,75,2,302,2,,,,,749.8296067999909,750.8297421999741,750.8297421999741,750.8297421999741,750.8297421999741,750.8297421999741,751.8295635000104,751.8295635000104,c,1,0.29499910003505647,975758,001,2022-11-05_17h01.20.972,untitled,2022.2.4,60.080628173475596,
-150,z,75,3,303,3,,,,,752.1460612999508,753.1459918000037,753.1459918000037,753.1459918000037,753.1459918000037,753.1459918000037,754.1459527999396,754.1459527999396,z,1,0.26011819997802377,975758,001,2022-11-05_17h01.20.972,untitled,2022.2.4,60.080628173475596,
-50,x,76,0,304,0,,,,,754.4292640999192,755.4292147000087,755.4292147000087,755.4292147000087,755.4292147000087,755.4292147000087,756.429308099905,756.429308099905,x,1,0.2946613000240177,975758,001,2022-11-05_17h01.20.972,untitled,2022.2.4,60.080628173475596,
150,v,76,1,305,1,,,,,756.7461664999137,757.7461067999247,757.7461067999247,757.7461067999247,757.7461067999247,757.7461067999247,758.7458088999847,758.7458088999847,v,1,0.28105900005903095,975758,001,2022-11-05_17h01.20.972,untitled,2022.2.4,60.080628173475596,
50,c,76,2,306,2,,,,,759.0458265999332,760.0485934999306,760.0485934999306,760.0485934999306,760.0485934999306,760.0485934999306,761.0457170999143,761.0457170999143,c,1,0.26263690006453544,975758,001,2022-11-05_17h01.20.972,untitled,2022.2.4,60.080628173475596,
-150,z,76,3,307,3,,,,,761.3288321999134,762.3288371999515,762.3288371999515,762.3288371999515,762.3288371999515,762.3288371999515,763.3288144000107,763.3288144000107,z,1,0.3876620000228286,975758,001,2022-11-05_17h01.20.972,untitled,2022.2.4,60.080628173475596,
-50,x,77,0,308,0,,,,,763.7453215999994,764.7452796999132,764.7452796999132,764.7452796999132,764.7452796999132,764.7452796999132,765.7452223999426,765.7452223999426,x,1,0.14313550002407283,975758,001,2022-11-05_17h01.20.972,untitled,2022.2.4,60.080628173475596,
150,v,77,1,309,1,,,,,765.9118573999731,766.9118248999584,766.9118248999584,766.9118248999584,766.9118248999584,766.9118248999584,767.9119542000117,767.9119542000117,v,1,0.36852799996268004,975758,001,2022-11-05_17h01.20.972,untitled,2022.2.4,60.080628173475596,
50,c,77,2,310,2,,,,,768.2970711999806,769.2994755000109,769.2994755000109,769.2994755000109,769.2994755000109,769.2994755000109,770.2992639999138,770.2992639999138,c,1,0.39568499999586493,975758,001,2022-11-05_17h01.20.972,untitled,2022.2.4,60.080628173475596,
-150,z,77,3,311,3,,,,,770.715913199936,771.7159228000091,771.7159228000091,771.7159228000091,771.7159228000091,771.7159228000091,772.7158467998961,772.7158467998961,z,1,0.3052250000182539,975758,001,2022-11-05_17h01.20.972,untitled,2022.2.4,60.080628173475596,
-50,x,78,0,312,0,,,,,773.0496854999801,774.0490983999334,774.0490983999334,774.0490983999334,774.0490983999334,774.0490983999334,775.0497131999582,775.0497131999582,x,1,0.26668190001510084,975758,001,2022-11-05_17h01.20.972,untitled,2022.2.4,60.080628173475596,
150,v,78,1,313,1,,,,,775.3322463999502,776.3322031999705,776.3322031999705,776.3322031999705,776.3322031999705,776.3322031999705,777.3328214999055,777.3328214999055,v,1,0.28107669996097684,975758,001,2022-11-05_17h01.20.972,untitled,2022.2.4,60.080628173475596,
50,c,78,2,314,2,,,,,777.632169199991,778.6321247000014,778.6321247000014,778.6321247000014,778.6321247000014,778.6321247000014,779.6320940000005,779.6320940000005,c,1,0.3713156000012532,975758,001,2022-11-05_17h01.20.972,untitled,2022.2.4,60.080628173475596,
-150,z,78,3,315,3,,,,,780.0319845000049,781.0319503999781,781.0319503999781,781.0319503999781,781.0319503999781,781.0319503999781,782.0318906999892,782.0318906999892,z,1,0.2561449999921024,975758,001,2022-11-05_17h01.20.972,untitled,2022.2.4,60.080628173475596,
-50,x,79,0,316,0,,,,,782.3152297999477,783.3151105999714,783.3151105999714,783.3151105999714,783.3151105999714,783.3151105999714,784.315722099971,784.315722099971,x,1,0.28160720004234463,975758,001,2022-11-05_17h01.20.972,untitled,2022.2.4,60.080628173475596,
150,v,79,1,317,1,,,,,784.615059099975,785.6149884999031,785.6149884999031,785.6149884999031,785.6149884999031,785.6149884999031,786.6148735999595,786.6148735999595,v,1,0.4218280999921262,975758,001,2022-11-05_17h01.20.972,untitled,2022.2.4,60.080628173475596,
50,c,79,2,318,2,,,,,787.0648412998999,788.0647714999504,788.0647714999504,788.0647714999504,788.0647714999504,788.0647714999504,789.0647806999041,789.0647806999041,c,1,0.2838654000079259,975758,001,2022-11-05_17h01.20.972,untitled,2022.2.4,60.080628173475596,
-150,z,79,3,319,3,,,,,789.3647337999428,790.3646269999444,790.3646269999444,790.3646269999444,790.3646269999444,790.3646269999444,791.3645774999168,791.3645774999168,z,1,0.4245718000456691,975758,001,2022-11-05_17h01.20.972,untitled,2022.2.4,60.080628173475596,
-50,x,80,0,320,0,,,,,791.8145643000025,792.8144633999327,792.8144633999327,792.8144633999327,792.8144633999327,792.8144633999327,793.814374199952,793.814374199952,x,1,0.26572489994578063,975758,001,2022-11-05_17h01.20.972,untitled,2022.2.4,60.080628173475596,
150,v,80,1,321,1,,,,,794.0977895999094,795.0975926999236,795.0975926999236,795.0975926999236,795.0975926999236,795.0975926999236,796.0975610999158,796.0975610999158,v,1,0.3234711999539286,975758,001,2022-11-05_17h01.20.972,untitled,2022.2.4,60.080628173475596,
50,c,80,2,322,2,,,,,796.4475059999386,797.4474864999065,797.4474864999065,797.4474864999065,797.4474864999065,797.4474864999065,798.4475977999391,798.4475977999391,c,1,0.47142499999608845,975758,001,2022-11-05_17h01.20.972,untitled,2022.2.4,60.080628173475596,
-150,z,80,3,323,3,,,,,798.9480930999853,799.9473191999132,799.9473191999132,799.9473191999132,799.9473191999132,799.9473191999132,800.9472164999461,800.9472164999461,z,1,0.32669409993104637,975758,001,2022-11-05_17h01.20.972,untitled,2022.2.4,60.080628173475596,
-50,x,81,0,324,0,,,,,801.2971783999819,802.2971155999694,802.2971155999694,802.2971155999694,802.2971155999694,802.2971155999694,803.2972164999228,803.2972164999228,x,1,0.5736771998926997,975758,001,2022-11-05_17h01.20.972,untitled,2022.2.4,60.080628173475596,
150,v,81,1,325,1,,,,,803.8970374999335,804.8970236999448,804.8970236999448,804.8970236999448,804.8970236999448,804.8970236999448,805.8971067999955,805.8971067999955,v,1,0.2643366999691352,975758,001,2022-11-05_17h01.20.972,untitled,2022.2.4,60.080628173475596,
50,c,81,2,326,2,,,,,806.1800733999116,807.1804434999358,807.1804434999358,807.1804434999358,807.1804434999358,807.1804434999358,808.1805400999729,808.1805400999729,c,1,0.26298640004824847,975758,001,2022-11-05_17h01.20.972,untitled,2022.2.4,60.080628173475596,
-150,z,81,3,327,3,,,,,808.463848699932,809.4633266999153,809.4633266999153,809.4633266999153,809.4633266999153,809.4633266999153,810.4635872999206,810.4635872999206,z,1,0.3339362998958677,975758,001,2022-11-05_17h01.20.972,untitled,2022.2.4,60.080628173475596,
-50,x,82,0,328,0,,,,,810.8254181999946,811.8253267999971,811.8253267999971,811.8253267999971,811.8253267999971,811.8253267999971,812.8253630999243,812.8253630999243,x,1,0.41735889995470643,975758,001,2022-11-05_17h01.20.972,untitled,2022.2.4,60.080628173475596,
150,v,82,1,329,1,,,,,813.2753778999904,814.2756537999958,814.2756537999958,814.2756537999958,814.2756537999958,814.2756537999958,815.2750521999551,815.2750521999551,v,1,0.25485819997265935,975758,001,2022-11-05_17h01.20.972,untitled,2022.2.4,60.080628173475596,
50,c,82,2,330,2,,,,,815.5586131999735,816.5583199999528,816.5583199999528,816.5583199999528,816.5583199999528,816.5583199999528,817.5582677999046,817.5582677999046,c,1,0.25516699999570847,975758,001,2022-11-05_17h01.20.972,untitled,2022.2.4,60.080628173475596,
-150,z,82,3,331,3,,,,,817.8415525999153,818.8415658999002,818.8415658999002,818.8415658999002,818.8415658999002,818.8415658999002,819.8414817999583,819.8414817999583,z,1,0.31127889989875257,975758,001,2022-11-05_17h01.20.972,untitled,2022.2.4,60.080628173475596,
-50,x,83,0,332,0,,,,,820.1750807999633,821.1751229999354,821.1751229999354,821.1751229999354,821.1751229999354,821.1751229999354,822.1745726999361,822.1745726999361,x,1,0.32197010004892945,975758,001,2022-11-05_17h01.20.972,untitled,2022.2.4,60.080628173475596,
150,v,83,1,333,1,,,,,822.524649299914,823.5245691000018,823.5245691000018,823.5245691000018,823.5245691000018,823.5245691000018,824.5244106999598,824.5244106999598,v,1,0.25088840001262724,975758,001,2022-11-05_17h01.20.972,untitled,2022.2.4,60.080628173475596,
50,c,83,2,334,2,,,,,824.8077653999208,825.8076440999284,825.8076440999284,825.8076440999284,825.8076440999284,825.8076440999284,826.8076941999607,826.8076941999607,c,1,0.29908430005889386,975758,001,2022-11-05_17h01.20.972,untitled,2022.2.4,60.080628173475596,
-150,z,83,3,335,3,,,,,827.1242386999074,828.1242065998958,828.1242065998958,828.1242065998958,828.1242065998958,828.1242065998958,829.1241574999876,829.1241574999876,z,1,0.27392159996088594,975758,001,2022-11-05_17h01.20.972,untitled,2022.2.4,60.080628173475596,
-50,x,84,0,336,0,,,,,829.424080299912,830.4241076000035,830.4241076000035,830.4241076000035,830.4241076000035,830.4241076000035,831.4238310999935,831.4238310999935,x,1,0.060352299944497645,975758,001,2022-11-05_17h01.20.972,untitled,2022.2.4,60.080628173475596,
150,v,84,1,337,1,,,,,831.507196099963,832.5080384999746,832.5080384999746,832.5080384999746,832.5080384999746,832.5080384999746,833.5072590999771,833.5072590999771,v,1,0.3344450000440702,975758,001,2022-11-05_17h01.20.972,untitled,2022.2.4,60.080628173475596,
50,c,84,2,338,2,,,,,833.8737549999496,834.8737979999278,834.8737979999278,834.8737979999278,834.8737979999278,834.8737979999278,835.8738532999996,835.8738532999996,c,1,0.3218726000050083,975758,001,2022-11-05_17h01.20.972,untitled,2022.2.4,60.080628173475596,
-150,z,84,3,339,3,,,,,836.2237441999605,837.2238135999069,837.2238135999069,837.2238135999069,837.2238135999069,837.2238135999069,838.2235405999236,838.2235405999236,z,1,0.2989453999325633,975758,001,2022-11-05_17h01.20.972,untitled,2022.2.4,60.080628173475596,
-50,x,85,0,340,0,,,,,838.5402937999461,839.5405606999993,839.5405606999993,839.5405606999993,839.5405606999993,839.5405606999993,840.5401297999779,840.5401297999779,v,0,0.21764290006831288,975758,001,2022-11-05_17h01.20.972,untitled,2022.2.4,60.080628173475596,
150,v,85,1,341,1,,,,,840.7901207999093,841.7899982999079,841.7899982999079,841.7899982999079,841.7899982999079,841.7899982999079,842.7898822999559,842.7898822999559,v,1,0.25802709988784045,975758,001,2022-11-05_17h01.20.972,untitled,2022.2.4,60.080628173475596,
50,c,85,2,342,2,,,,,843.0733429999091,844.073362999945,844.073362999945,844.073362999945,844.073362999945,844.073362999945,845.0732357999077,845.0732357999077,c,1,0.23627800005488098,975758,001,2022-11-05_17h01.20.972,untitled,2022.2.4,60.080628173475596,
-150,z,85,3,343,3,,,,,845.3396697998978,846.3397180999164,846.3397180999164,846.3397180999164,846.3397180999164,846.3397180999164,847.3396661999868,847.3396661999868,z,1,0.07232789997942746,975758,001,2022-11-05_17h01.20.972,untitled,2022.2.4,60.080628173475596,
-50,x,86,0,344,0,,,,,847.4396149999229,848.4396530999802,848.4396530999802,848.4396530999802,848.4396530999802,848.4396530999802,849.4397053999128,849.4397053999128,x,1,0.2221146000083536,975758,001,2022-11-05_17h01.20.972,untitled,2022.2.4,60.080628173475596,
150,v,86,1,345,1,,,,,849.6895021999953,850.689334900002,850.689334900002,850.689334900002,850.689334900002,850.689334900002,851.6893599999603,851.6893599999603,v,1,0.29096730006858706,975758,001,2022-11-05_17h01.20.972,untitled,2022.2.4,60.080628173475596,
50,c,86,2,346,2,,,,,852.00606039993,853.0059523999225,853.0059523999225,853.0059523999225,853.0059523999225,853.0059523999225,854.0058299999218,854.0058299999218,c,1,0.2699179000919685,975758,001,2022-11-05_17h01.20.972,untitled,2022.2.4,60.080628173475596,
-150,z,86,3,347,3,,,,,854.3059263000032,855.3057357999496,855.3057357999496,855.3057357999496,855.3057357999496,855.3057357999496,856.3057397999801,856.3057397999801,z,1,0.6659812000580132,975758,001,2022-11-05_17h01.20.972,untitled,2022.2.4,60.080628173475596,
-50,x,87,0,348,0,,,,,856.9888601999264,857.9888541999971,857.9888541999971,857.9888541999971,857.9888541999971,857.9888541999971,858.9887765999883,858.9887765999883,x,1,0.30901720002293587,975758,001,2022-11-05_17h01.20.972,untitled,2022.2.4,60.080628173475596,
150,v,87,1,349,1,,,,,859.3220778999384,860.3222427999135,860.3222427999135,860.3222427999135,860.3222427999135,860.3222427999135,861.3219018999953,861.3219018999953,v,1,0.2613818999379873,975758,001,2022-11-05_17h01.20.972,untitled,2022.2.4,60.080628173475596,
50,c,87,2,350,2,,,,,861.6053016999504,862.6051510999678,862.6051510999678,862.6051510999678,862.6051510999678,862.6051510999678,863.6051578999031,863.6051578999031,c,1,0.761662199976854,975758,001,2022-11-05_17h01.20.972,untitled,2022.2.4,60.080628173475596,
-150,z,87,3,351,3,,,,,864.3888258999214,865.3882701999974,865.3882701999974,865.3882701999974,865.3882701999974,865.3882701999974,866.3882601999212,866.3882601999212,z,1,0.3652767000021413,975758,001,2022-11-05_17h01.20.972,untitled,2022.2.4,60.080628173475596,
-50,x,88,0,352,0,,,,,866.77158099995,867.7714740999509,867.7714740999509,867.7714740999509,867.7714740999509,867.7714740999509,868.7715984999668,868.7715984999668,z,0,0.42785690003074706,975758,001,2022-11-05_17h01.20.972,untitled,2022.2.4,60.080628173475596,
150,v,88,1,353,1,,,,,869.221463099937,870.2213950000005,870.2213950000005,870.2213950000005,870.2213950000005,870.2213950000005,871.2211995999096,871.2211995999096,v,1,0.30478520004544407,975758,001,2022-11-05_17h01.20.972,untitled,2022.2.4,60.080628173475596,
50,c,88,2,354,2,,,,,871.5545946999919,872.5544839999638,872.5544839999638,872.5544839999638,872.5544839999638,872.5544839999638,873.5545215999009,873.5545215999009,c,1,0.3043226000154391,975758,001,2022-11-05_17h01.20.972,untitled,2022.2.4,60.080628173475596,
-150,z,88,3,355,3,,,,,873.8878074999666,874.8876033999259,874.8876033999259,874.8876033999259,874.8876033999259,874.8876033999259,875.8875910999486,875.8875910999486,z,1,0.2779197000199929,975758,001,2022-11-05_17h01.20.972,untitled,2022.2.4,60.080628173475596,
-50,x,89,0,356,0,,,,,876.1876305999467,877.1874743999215,877.1874743999215,877.1874743999215,877.1874743999215,877.1874743999215,878.1877884999849,878.1877884999849,x,1,0.4047613999573514,975758,001,2022-11-05_17h01.20.972,untitled,2022.2.4,60.080628173475596,
150,v,89,1,357,1,,,,,878.6207552999258,879.6207194000017,879.6207194000017,879.6207194000017,879.6207194000017,879.6207194000017,880.6208057999611,880.6208057999611,v,1,0.23902509990148246,975758,001,2022-11-05_17h01.20.972,untitled,2022.2.4,60.080628173475596,
50,c,89,2,358,2,,,,,880.8872103999602,881.8876130999997,881.8876130999997,881.8876130999997,881.8876130999997,881.8876130999997,882.8871271999087,882.8871271999087,c,1,0.24267930001951754,975758,001,2022-11-05_17h01.20.972,untitled,2022.2.4,60.080628173475596,
-150,z,89,3,359,3,,,,,883.153692599968,884.1539521999657,884.1539521999657,884.1539521999657,884.1539521999657,884.1539521999657,885.153600599966,885.153600599966,z,1,0.2759530999464914,975758,001,2022-11-05_17h01.20.972,untitled,2022.2.4,60.080628173475596,
-50,x,90,0,360,0,,,,,885.4535806999775,886.4538239999674,886.4538239999674,886.4538239999674,886.4538239999674,886.4538239999674,887.4534791999031,887.4534791999031,x,1,0.27142110001295805,975758,001,2022-11-05_17h01.20.972,untitled,2022.2.4,60.080628173475596,
150,v,90,1,361,1,,,,,887.7533727999544,888.7536964999745,888.7536964999745,888.7536964999745,888.7536964999745,888.7536964999745,889.7534084999934,889.7534084999934,v,1,0.29326249996665865,975758,001,2022-11-05_17h01.20.972,untitled,2022.2.4,60.080628173475596,
50,c,90,2,362,2,,,,,890.0698699000059,891.0699363999302,891.0699363999302,891.0699363999302,891.0699363999302,891.0699363999302,892.0699440999888,892.0699440999888,c,1,0.2456354999449104,975758,001,2022-11-05_17h01.20.972,untitled,2022.2.4,60.080628173475596,
-150,z,90,3,363,3,,,,,892.3363635999849,893.3366719000041,893.3366719000041,893.3366719000041,893.3366719000041,893.3366719000041,894.3363824000116,894.3363824000116,z,1,0.31249480007681996,975758,001,2022-11-05_17h01.20.972,untitled,2022.2.4,60.080628173475596,
-50,x,91,0,364,0,,,,,894.669707999914,895.6695305999601,895.6695305999601,895.6695305999601,895.6695305999601,895.6695305999601,896.6695798999863,896.6695798999863,x,1,0.3049742999719456,975758,001,2022-11-05_17h01.20.972,untitled,2022.2.4,60.080628173475596,
150,v,91,1,365,1,,,,,897.0027700999053,898.0031643999973,898.0031643999973,898.0031643999973,898.0031643999973,898.0031643999973,899.0026516999351,899.0026516999351,v,1,0.23850440001115203,975758,001,2022-11-05_17h01.20.972,untitled,2022.2.4,60.080628173475596,
50,c,91,2,366,2,,,,,899.2693853999954,900.2693210999714,900.2693210999714,900.2693210999714,900.2693210999714,900.2693210999714,901.2692809998989,901.2692809998989,c,1,0.3706137000117451,975758,001,2022-11-05_17h01.20.972,untitled,2022.2.4,60.080628173475596,
-150,z,91,3,367,3,,,,,901.6692132999888,902.6691220999928,902.6691220999928,902.6691220999928,902.6691220999928,902.6691220999928,903.6691499999724,903.6691499999724,z,1,0.2733137001050636,975758,001,2022-11-05_17h01.20.972,untitled,2022.2.4,60.080628173475596,
-50,x,92,0,368,0,,,,,903.9697007999057,904.9689975999063,904.9689975999063,904.9689975999063,904.9689975999063,904.9689975999063,905.9688002999173,905.9688002999173,x,1,0.23813239997252822,975758,001,2022-11-05_17h01.20.972,untitled,2022.2.4,60.080628173475596,
150,v,92,1,369,1,,,,,906.2354543999536,907.235407799948,907.235407799948,907.235407799948,907.235407799948,907.235407799948,908.2352968999185,908.2352968999185,v,1,0.24016859999392182,975758,001,2022-11-05_17h01.20.972,untitled,2022.2.4,60.080628173475596,
50,c,92,2,370,2,,,,,908.5023239000002,909.5019215999637,909.5019215999637,909.5019215999637,909.5019215999637,909.5019215999637,910.5018973000115,910.5018973000115,c,1,0.21478500007651746,975758,001,2022-11-05_17h01.20.972,untitled,2022.2.4,60.080628173475596,
-150,z,92,3,371,3,,,,,910.735282999929,911.7351100000087,911.7351100000087,911.7351100000087,911.7351100000087,911.7351100000087,912.7351442999206,912.7351442999206,z,1,0.3336892999941483,975758,001,2022-11-05_17h01.20.972,untitled,2022.2.4,60.080628173475596,
-50,x,93,0,372,0,,,,,913.0851429000031,914.0850621999707,914.0850621999707,914.0850621999707,914.0850621999707,914.0850621999707,915.0849700999679,915.0849700999679,x,1,0.25121149991173297,975758,001,2022-11-05_17h01.20.972,untitled,2022.2.4,60.080628173475596,
150,v,93,1,373,1,,,,,915.368540699943,916.368226599996,916.368226599996,916.368226599996,916.368226599996,916.368226599996,917.3682303999085,917.3682303999085,v,1,0.2631775999907404,975758,001,2022-11-05_17h01.20.972,untitled,2022.2.4,60.080628173475596,
50,c,93,2,374,2,,,,,917.6513446999015,918.6513335999334,918.6513335999334,918.6513335999334,918.6513335999334,918.6513335999334,919.651265499997,919.651265499997,c,1,0.24147350003477186,975758,001,2022-11-05_17h01.20.972,untitled,2022.2.4,60.080628173475596,
-150,z,93,3,375,3,,,,,919.9179836999392,920.9177810999099,920.9177810999099,920.9177810999099,920.9177810999099,920.9177810999099,921.9180408999091,921.9180408999091,z,1,0.2219644000288099,975758,001,2022-11-05_17h01.20.972,untitled,2022.2.4,60.080628173475596,
-50,x,94,0,376,0,,,,,922.1678165999474,923.1683973999461,923.1683973999461,923.1683973999461,923.1683973999461,923.1683973999461,924.1678120999131,924.1678120999131,x,1,0.40525060007348657,975758,001,2022-11-05_17h01.20.972,untitled,2022.2.4,60.080628173475596,
150,v,94,1,377,1,,,,,924.6023252999876,925.6008295000065,925.6008295000065,925.6008295000065,925.6008295000065,925.6175604999298,926.6007571999216,926.6007571999216,v,1,0.4551315000280738,975758,001,2022-11-05_17h01.20.972,untitled,2022.2.4,60.080628173475596,
50,c,94,2,378,2,,,,,927.0841207999038,928.0841284999624,928.0841284999624,928.0841284999624,928.0841284999624,928.0841284999624,929.0839964000043,929.0839964000043,c,1,0.2556356000714004,975758,001,2022-11-05_17h01.20.972,untitled,2022.2.4,60.080628173475596,
